,s,ns,phi_r,phi_p,phi_y,ax,ay,az,wx,wy,wz,q.x,q.y,q.z,q.w
0,1651608966,681217419,-5.959538126322055,1.4406992721501943,-130.61585217755322,0.02685546875,0.1064453125,0.9794921875,0.0,-9.1552734375,16.9677734375,0.010306701995432377,0.05247136577963829,0.9069928526878357,0.4177373945713043
0,1651608966,734916166,-6.037739523450471,0.3316216390991334,-132.44635653549497,0.02880859375,0.06787109375,0.94677734375,2.86865234375,-0.1220703125,34.66796875,0.01858842931687832,0.04935973882675171,0.9137876033782959,0.40275344252586365
0,1651608966,824082510,-6.148580687075084,-0.32290308938659723,-135.13549763437737,0.03271484375,0.07421875,0.96728515625,-2.50244140625,7.568359375,17.63916015625,0.023065801709890366,0.04849866032600403,0.9230551719665527,0.38090044260025024
0,1651608966,870085893,-5.919450038535958,0.25935711710248777,-135.34288949833564,-0.015625,0.0947265625,1.00927734375,-1.220703125,-0.1220703125,3.7841796875,0.017525766044855118,0.04862108826637268,0.9237398505210876,0.3795175850391388
0,1651608966,931735783,-5.685731210421877,-0.019787818417680632,-135.92953444614804,-0.04736328125,0.037109375,1.08544921875,-4.45556640625,-7.8125,20.32470703125,0.01876751147210598,0.04590940102934837,0.925815761089325,0.37470704317092896
0,1651608966,990423458,-5.620390632613773,-1.1282538693935478,-137.74536755775262,0.1279296875,0.060546875,1.01220703125,-3.0517578125,-4.39453125,40.8935546875,0.02684354968369007,0.04218519851565361,0.9317889213562012,0.3595404624938965
0,1651608967,75701784,-5.195499505386089,-1.7030847243759364,-141.33209113622306,0.01318359375,0.08544921875,0.9345703125,3.0517578125,2.25830078125,36.31591796875,0.029012978076934814,0.03784773498773575,0.9427541494369507,0.3300614058971405
0,1651608967,135670884,-4.687622433516397,-1.454551963004038,-143.04388680639,-0.0791015625,0.072265625,1.0419921875,1.77001953125,-0.9765625,19.59228515625,0.024989094585180283,0.03476472944021225,0.9477398991584778,0.3161585330963135
0,1651608967,195977204,-4.338623245704017,-1.7490594747312327,-144.47493438091274,0.0888671875,0.07080078125,0.8681640625,1.40380859375,-3.11279296875,27.16064453125,0.02607126161456108,0.03139098361134529,0.9517120122909546,0.3042682707309723
0,1651608967,255025077,-4.3100376233670445,-2.234672904671034,-146.82565326679935,0.12890625,0.03515625,0.8916015625,0.67138671875,-1.77001953125,42.17529296875,0.029408004134893417,0.030468851327896118,0.9577358961105347,0.28451502323150635
0,1651608967,334643968,-4.13565350234651,-2.859620486131803,-150.51625036216734,0.1015625,0.09228515625,0.9921875,3.2958984375,3.11279296875,39.61181640625,0.03329409658908844,0.028538575395941734,0.9663804769515991,0.253349244594574
0,1651608967,371554049,-3.9965899970714043,-2.7634238884179316,-151.7558750550113,0.0703125,0.04443359375,0.9150390625,0.18310546875,5.67626953125,23.86474609375,0.03187546506524086,0.027926361188292503,0.9691117405891418,0.24295374751091003
0,1651608967,435655522,-3.9587464802013024,-2.586534368632472,-152.87355355041385,0.11279296875,0.1123046875,1.0166015625,1.52587890625,2.86865234375,20.20263671875,0.030025452375411987,0.028278015553951263,0.971467137336731,0.23356080055236816
0,1651608967,510891093,-3.9261596476711715,-3.2236900594609925,-155.56261268702622,0.0849609375,0.03515625,0.962890625,0.48828125,-0.18310546875,39.97802734375,0.03472205623984337,0.027516577392816544,0.9765908122062683,0.21049411594867706
0,1651608967,573676582,-3.167493610847655,-3.2925326033226088,-158.5585385626689,0.1474609375,-0.0126953125,1.55810546875,8.30078125,0.54931640625,43.5791015625,0.03335575759410858,0.021802306175231934,0.9819124937057495,0.1850941926240921
0,1651608967,639662753,-3.0581316100651725,-3.5306201911845596,-161.36433929257512,-0.07470703125,0.15185546875,0.9365234375,17.578125,-10.68115234375,50.048828125,0.03470669686794281,0.021333491429686546,0.9861189723014832,0.16096535325050354
0,1651608967,695548792,-2.571979662397998,-3.76646939798945,-164.79750655812535,0.1064453125,0.1298828125,0.96044921875,3.2958984375,6.53076171875,55.908203125,0.03553284332156181,0.017887720838189125,0.9905253648757935,0.13144223392009735
0,1651608967,756051371,-2.290511835570004,-4.084117163737825,-168.4136409311619,0.09423828125,0.2353515625,0.88916015625,21.6064453125,-6.8359375,54.62646484375,0.03746021166443825,0.016276434063911438,0.9941341876983643,0.10014508664608002
0,1651608967,838427162,-2.3940466177734074,-4.563777870372549,-173.4350730655502,0.076171875,0.1357421875,0.87255859375,-5.92041015625,-2.99072265625,63.8427734375,0.0409371592104435,0.018560361117124557,0.9973976612091064,0.05637020245194435
0,1651608967,897388762,-2.0675422311056417,-4.943555598132298,-177.99048139286853,0.1767578125,0.1669921875,0.93359375,-4.57763671875,-1.3427734375,66.162109375,0.04342970624566078,0.017266040667891502,0.998767077922821,0.01673833280801773
0,1651608967,955220266,-1.8363125800572069,-5.30729902992862,178.19341997348795,0.10498046875,0.2236328125,0.94287109375,12.02392578125,-0.79345703125,68.54248046875,0.0460343174636364,0.01673477701842785,0.9986636638641357,-0.016487590968608856
0,1651608968,10255670,-1.224298602120092,-5.857665427964492,173.87221883280935,0.23681640625,-0.005859375,1.07861328125,-4.8828125,12.0849609375,67.56591796875,0.05044926330447197,0.01338548306375742,0.997180163860321,-0.053921766579151154
0,1651608968,75278692,-0.6041962394626537,-6.185742892575477,169.32586733633045,0.345703125,-0.09130859375,1.23828125,3.41796875,0.06103515625,74.03564453125,0.05323020741343498,0.010260576382279396,0.9941741824150085,-0.09316117316484451
0,1651608968,134593895,0.20528044171044732,-6.2036260353698625,164.28931316311971,0.4130859375,-0.2685546875,1.2119140625,-5.92041015625,-1.52587890625,85.75439453125,0.053847044706344604,0.005623394623398781,0.9891766905784607,-0.1363760381937027
0,1651608968,190203195,0.06269600726873294,-6.203115478729404,160.06037421774965,0.06884765625,0.11279296875,0.9775390625,5.4931640625,1.0986328125,55.0537109375,0.053383491933345795,0.008829251863062382,0.9834613800048828,-0.17284651100635529
0,1651608968,254628577,-0.21378206621576945,-5.8131095426875605,158.36241651084117,0.0146484375,0.2333984375,0.97802734375,2.9296875,-0.6103515625,9.94873046875,0.049456093460321426,0.011347982101142406,0.9809427857398987,-0.18755462765693665
0,1651608968,295975963,-0.5739783619966066,-5.503920539339423,158.106940115126,0.05224609375,0.14892578125,0.97021484375,2.0751953125,1.5869140625,7.14111328125,0.04618806391954422,0.014029151760041714,0.9806146025657654,-0.1899075210094452
0,1651608968,350385407,-0.9384988345327229,-5.3040790226217815,157.74480348533191,-0.037109375,0.12109375,0.91162109375,1.89208984375,-9.33837890625,8.7890625,0.04381997510790825,0.01695689558982849,0.9800429940223694,-0.1931532621383667
0,1651608968,395237126,-1.2792795972262847,-5.409878652865279,156.9787294680233,0.0927734375,0.18994140625,1.02978515625,3.5400390625,-7.62939453125,30.1513671875,0.0440153144299984,0.020343557000160217,0.9786298274993896,-0.19983139634132385
0,1651608968,456331969,-1.5873052272596984,-6.0324905230733155,153.95183551468378,0.24658203125,0.177734375,1.0009765625,2.3193359375,0.8544921875,60.60791015625,0.04814334213733673,0.025333523750305176,0.9726681113243103,-0.22573688626289368
0,1651608968,496661390,-1.7622637245007484,-6.402039615664148,151.11695183929163,0.18505859375,0.17138671875,0.98193359375,0.8544921875,-5.79833984375,67.81005859375,0.050239335745573044,0.02879311330616474,0.9665632843971252,-0.2498047649860382
0,1651608968,554768002,-1.9666133795140095,-6.660340294601105,146.94764044537578,0.080078125,0.27734375,1.001953125,4.08935546875,-1.8310546875,63.96484375,0.05080852657556534,0.032945774495601654,0.9566464424133301,-0.2848869860172272
0,1651608968,618785603,-2.1016878408704165,-6.7501278269959775,143.0432311082297,0.1103515625,0.060546875,1.03173828125,-1.3427734375,-0.732421875,62.56103515625,0.050024665892124176,0.03602009266614914,0.9462968111038208,-0.3173680305480957
0,1651608968,655658498,-2.3098867343678027,-6.857639273400209,140.78537547429858,0.05517578125,0.2001953125,1.033203125,5.615234375,0.0,58.53271484375,0.049577269703149796,0.03901940584182739,0.9397327303886414,-0.33603864908218384
0,1651608968,716023476,-2.5707483073566917,-6.940702484557203,137.2022718960882,0.07666015625,0.1494140625,1.0859375,0.91552734375,-1.03759765625,56.57958984375,0.04817540943622589,0.04292748495936394,0.9286264181137085,-0.36536192893981934
0,1651608968,750287441,-2.6989784922779227,-6.898740790504407,134.7228859066169,0.0517578125,0.14892578125,1.01513671875,-2.62451171875,2.62451171875,54.8095703125,0.04646666720509529,0.04484957084059715,0.9204784631729126,-0.38542047142982483
0,1651608968,821746227,-2.166214558950231,-7.090224290112069,131.28605765967154,0.2646484375,0.13720703125,1.2490234375,15.9912109375,-1.40380859375,51.025390625,0.04853975400328636,0.04268446937203407,0.9086059331893921,-0.4126225709915161
0,1651608968,875786674,-1.9514505729999927,-7.124114408113202,127.57562569495383,0.16650390625,0.08544921875,0.82177734375,3.41796875,0.91552734375,60.1806640625,0.048225343227386475,0.04268656671047211,0.894834041595459,-0.4417286217212677
0,1651608968,918778561,-1.891072127623903,-6.976183182861305,124.89100618130198,0.1416015625,0.12060546875,1.0458984375,5.126953125,-0.8544921875,61.5234375,0.046313073486089706,0.04274383932352066,0.8843439221382141,-0.4625623822212219
0,1651608968,975716070,-2.1669174281045076,-7.077439029759451,121.31780637738814,0.11328125,0.2783203125,0.90087890625,-1.77001953125,-1.28173828125,53.955078125,0.044547680765390396,0.04669107496738434,0.869328498840332,-0.4900034964084625
0,1651608969,17042304,-2.1256058826833315,-7.03471192763279,119.35120367004471,0.091796875,0.06689453125,1.029296875,-1.0986328125,0.6103515625,52.30712890625,0.04360045865178108,0.04695085436105728,0.8608318567276001,-0.5048397183418274
0,1651608969,69952912,-2.3093556871598344,-6.382401114253069,116.95453127142225,-0.1162109375,0.09423828125,1.025390625,-0.30517578125,5.0048828125,22.705078125,0.0369240865111351,0.04625067114830017,0.8503516316413879,-0.5228763818740845
0,1651608969,114413555,-1.6950939366555504,-6.167973301676042,116.00225263696073,0.0791015625,-0.0078125,0.94970703125,10.25390625,-2.0751953125,19.53125,0.03779338300228119,0.041031766682863235,0.8463159799575806,-0.5297523140907288
0,1651608969,174625474,-1.721857712753128,-5.777401313706734,114.52689079510297,0.06884765625,0.099609375,0.99755859375,3.60107421875,-0.8544921875,29.60205078125,0.034271489828825,0.03987277299165726,0.8395927548408508,-0.540665864944458
0,1651608969,215065104,-1.8675645374914234,-5.833040888459304,113.2374330420746,0.068359375,0.09326171875,1.02490234375,-2.44140625,-3.662109375,38.57421875,0.03352627530694008,0.04158205911517143,0.8333790898323059,-0.5501147508621216
0,1651608969,269705335,-2.2945503983601854,-5.981674342535244,110.64051998755488,0.06005859375,0.18017578125,0.93408203125,5.7373046875,3.90625,41.32080078125,0.031521301716566086,0.046124644577503204,0.8204661011695862,-0.5689588785171509
0,1651608969,329708515,-2.648994314158123,-5.912241627640656,108.26080694864157,0.1005859375,0.1220703125,1.04931640625,-8.11767578125,1.3427734375,34.48486328125,0.028253750875592232,0.04891584813594818,0.808359682559967,-0.5859723687171936
0,1651608969,373168473,-1.861170199767822,-5.531271604983916,106.78923586177315,0.12548828125,-0.43798828125,1.802734375,-40.4052734375,36.0107421875,34.72900390625,0.029055431485176086,0.04179062694311142,0.8012534379959106,-0.5961562991142273
0,1651608969,434586744,-1.1518146069355066,-5.271314178286407,104.53956962465688,-0.1513671875,-0.591796875,0.83642578125,-26.123046875,5.43212890625,35.94970703125,0.030223147943615913,0.03607981279492378,0.7897415161132812,-0.6116315722465515
0,1651608969,474010809,-0.4396428950918833,-5.2534912265340825,102.87516863714066,-0.10595703125,-0.55908203125,1.05615234375,7.62939453125,-2.38037109375,49.8046875,0.03344592824578285,0.03156505152583122,0.7809926271438599,-0.6228446960449219
0,1651608969,510360466,-0.349675803427034,-5.495507880716083,100.74115116305104,0.16943359375,-0.28271484375,0.8525390625,-16.05224609375,-15.2587890625,43.51806640625,0.03497768193483353,0.03292378783226013,0.7692034244537354,-0.6371959447860718
0,1651608969,578538473,-0.22882422384140028,-5.907996665071493,97.14766569730229,0.18115234375,0.17138671875,0.8935546875,-0.54931640625,0.732421875,63.1103515625,0.037321221083402634,0.03559301421046257,0.7487430572509766,-0.660851001739502
0,1651608969,634582370,-0.3021284553761952,-6.158192470784584,93.32242508282582,0.2080078125,0.11865234375,1.06005859375,-11.29150390625,0.6103515625,55.60302734375,0.03725997358560562,0.038779545575380325,0.726158618927002,-0.6854207515716553
0,1651608969,676395682,-0.7647269759382567,-5.918124981836976,91.7884670480785,-0.0087890625,0.607421875,0.7431640625,8.9111328125,9.70458984375,17.4560546875,0.0324285514652729,0.04071316495537758,0.7168431282043457,-0.6952890157699585
0,1651608969,714545106,-0.9964022968300348,-5.715214575747884,91.4871942339784,-0.04736328125,0.513671875,1.06884765625,3.41796875,3.173828125,5.67626953125,0.029644722118973732,0.04101023077964783,0.7150037884712219,-0.6972869634628296
0,1651608969,784073371,-1.7241094340234109,-5.576657785131828,91.2725008977974,-0.015625,0.556640625,0.9453125,4.638671875,-0.18310546875,1.28173828125,0.024266783148050308,0.04475344717502594,0.7134762406349182,-0.6988276243209839
0,1651608969,840306902,-2.3240051622690423,-5.467513923515963,91.24987248107713,-0.0654296875,0.61865234375,1.03125,1.52587890625,0.732421875,1.03759765625,0.019917963072657585,0.04782745987176895,0.7131404280662537,-0.6991041302680969
0,1651608969,900845290,-2.8870821154634854,-5.4191847856094215,91.24466104674042,0.02392578125,0.4951171875,1.02587890625,-1.8310546875,0.30517578125,0.48828125,0.016178801655769348,0.05103765055537224,0.7128867506980896,-0.6992323994636536
0,1651608969,934771043,-3.096968919459511,-5.350440212273713,91.22697768697925,0.02099609375,0.412109375,0.953125,-1.03759765625,-0.42724609375,0.48828125,0.014461356215178967,0.0519271194934845,0.7127155661582947,-0.6993789672851562
0,1651608969,994472428,-3.4587271140848865,-5.0294238826040525,91.3052311643001,-0.02880859375,0.28564453125,1.09912109375,0.732421875,1.5869140625,-0.3662109375,0.01028735563158989,0.05221591517329216,0.7131752371788025,-0.6989626288414001
0,1651608970,32620796,-3.8299918648178615,-4.882603416865928,91.35590433775242,0.00732421875,0.21337890625,1.01220703125,-2.0751953125,0.0,-0.54931640625,0.007130295969545841,0.05363016203045845,0.7133808732032776,-0.6986849308013916
0,1651608970,98421172,-3.9534688784069982,-4.299876009429358,91.40320339775475,0.01123046875,0.06103515625,1.0166015625,-0.9765625,0.18310546875,-0.06103515625,0.0027604764327406883,0.05085466057062149,0.7138791084289551,-0.69841468334198
0,1651608970,135709081,-3.8522262650003682,-3.845536094708341,91.40511585072235,0.00927734375,0.05224609375,1.02197265625,-1.220703125,-0.244140625,-0.42724609375,0.0005407138378359377,0.04746157303452492,0.7141292095184326,-0.6984029412269592
0,1651608970,195230272,-3.7306241383384,-3.2403036408434023,91.4297523430586,-0.01611328125,0.05029296875,1.00830078125,-0.1220703125,-0.3662109375,-0.48828125,-0.002489011036232114,0.04302317649126053,0.7145661115646362,-0.6982393860816956
0,1651608970,254815047,-3.4513532845456227,-2.5627717136231745,91.45811811868165,-0.00732421875,0.0400390625,0.98193359375,-0.732421875,1.03759765625,-0.8544921875,-0.005010656081140041,0.03716091066598892,0.7150730490684509,-0.6980434656143188
0,1651608970,321121381,-2.348444006006171,-1.8970715950361132,91.39651664255732,0.109375,-0.6357421875,1.595703125,-0.48828125,7.62939453125,1.28173828125,-0.002465868601575494,0.0262236837297678,0.7151862382888794,-0.698437511920929
0,1651608970,353689133,-2.44613983024286,-1.9038290000027829,91.29954844691065,0.251953125,-0.0732421875,1.5185546875,-10.009765625,12.51220703125,5.4931640625,-0.003041865536943078,0.026872001588344574,0.7145707607269287,-0.6990403532981873
0,1651608970,414794984,-2.102227639258259,-1.8629426338574404,91.06715809059013,0.009765625,0.27734375,0.6015625,28.50341796875,-10.43701171875,1.89208984375,-0.0012486736522987485,0.024475567042827606,0.7132378220558167,-0.700493574142456
0,1651608970,475106905,-1.6660091769006378,-1.8947625642098256,90.7512276905312,0.03076171875,-0.0048828125,0.70263671875,8.97216796875,-7.8125,4.2724609375,0.0015555503778159618,0.021959086880087852,0.7113857865333557,-0.7024568915367126
0,1651608970,515380421,-1.589329951461784,-1.9686312735269251,90.41989521389387,-0.05908203125,-0.0517578125,0.6953125,10.55908203125,-5.55419921875,9.1552734375,0.002420959062874317,0.021942755207419395,0.7093522548675537,-0.7045084238052368
0,1651608970,570347888,-0.6124321135803668,-1.8670932544386925,89.74780459956462,-0.1083984375,-0.67822265625,1.23046875,-28.01513671875,2.01416015625,13.36669921875,0.007708255667239428,0.01531614176928997,0.7053834199905396,-0.7086185812950134
0,1651608970,634754358,-0.9164896171494146,-2.1331489728479647,88.6933941464439,-0.09228515625,0.27734375,1.130859375,2.50244140625,5.126953125,19.59228515625,0.00729242991656065,0.018900470808148384,0.6987484097480774,-0.7150806784629822
0,1651608970,674766174,-1.19103835562648,-2.1610897826386055,87.77702864663831,-0.0146484375,0.1103515625,0.904296875,2.197265625,0.9765625,21.17919921875,0.00558348186314106,0.02079414762556553,0.6929553747177124,-0.7206590175628662
0,1651608970,729947756,-1.3528659209098863,-2.0486580387110256,86.43230783303537,-0.06201171875,-0.07373046875,1.03369140625,-2.8076171875,3.7841796875,20.1416015625,0.0036381029058247805,0.021110082045197487,0.6844416260719299,-0.7287530303001404
0,1651608970,789918872,-1.0063260280855344,-1.8455062281234555,85.81562371325326,0.044921875,0.107421875,1.31298828125,-0.1220703125,-1.64794921875,4.94384765625,0.00453242426738143,0.0177732165902853,0.6806026101112366,-0.7324231266975403
0,1651608970,834956162,-1.1562704515952937,-1.7814560224599552,85.64519683308309,-0.05712890625,0.1455078125,1.17041015625,2.8076171875,-8.30078125,2.685546875,0.003166344715282321,0.018259242177009583,0.6794988512992859,-0.7334425449371338
0,1651608970,894630698,-1.1402346615279848,-1.43872460042812,85.58358852676959,-0.07763671875,0.00048828125,1.416015625,-0.54931640625,8.056640625,-3.60107421875,0.0012273875763639808,0.015971718356013298,0.6791573762893677,-0.7338178157806396
0,1651608970,930048407,-1.7740723745237599,-0.8499733396695693,86.35705280876017,-0.17041015625,0.1806640625,0.982421875,-5.43212890625,13.5498046875,-28.80859375,-0.006213996093720198,0.016001276671886444,0.6840893030166626,-0.7291963696479797
0,1651608970,974647835,-1.9761472563782896,-0.28643099979663983,88.2143451686267,-0.19482421875,0.06787109375,0.8681640625,3.7841796875,-1.15966796875,-49.37744140625,-0.010642577894032001,0.013796557672321796,0.695866048336029,-0.7179602384567261
0,1651608971,34791722,-2.41066873689228,0.5975513725347303,91.39259611397372,-0.0986328125,0.13232421875,1.05126953125,-3.7841796875,-1.953125,-50.29296875,-0.018423276022076607,0.011412412859499454,0.7155561447143555,-0.6982190012931824
0,1651608971,96368683,-2.1698648681747796,0.8474409403130814,94.03428788869205,-0.03125,0.005859375,1.0869140625,3.7841796875,-8.97216796875,-25.0244140625,-0.01831788942217827,0.008810281753540039,0.7315020561218262,-0.6815362572669983
0,1651608971,158126990,-2.7168697459219477,0.4901068406400234,94.78288345191461,0.0810546875,0.23681640625,1.12939453125,6.89697265625,1.953125,-6.591796875,-0.019196070730686188,0.014553415589034557,0.7358510494232178,-0.6767147779464722
0,1651608971,194742539,-3.075316579460336,0.716368489562626,95.17210861195696,-0.0556640625,0.06396484375,1.02197265625,-10.07080078125,2.5634765625,-11.8408203125,-0.02271241508424282,0.015595926903188229,0.7381240725517273,-0.6741021871566772
0,1651608971,250669602,-3.587290484171567,1.3799736610651976,96.62966415064851,-0.068359375,0.21533203125,1.04150390625,0.91552734375,6.34765625,-37.90283203125,-0.02980295941233635,0.015368780121207237,0.7466409802436829,-0.6643815040588379
0,1651608971,291753913,-3.807770698126871,2.0701391970941274,98.70334373361024,-0.1982421875,0.0859375,0.9248046875,2.25830078125,3.72314453125,-53.89404296875,-0.03533666580915451,0.013441970571875572,0.7585704922676086,-0.6504931449890137
0,1651608971,354912750,-3.0100099391546706,2.6653052327829365,102.18997088979415,-0.048828125,-0.4375,0.6279296875,-3.662109375,-1.15966796875,-58.9599609375,-0.034582458436489105,0.005831882823258638,0.7780929803848267,-0.6271694898605347
0,1651608971,394637715,-2.513354868091309,3.1624108828881075,104.97875761847787,-0.033203125,-0.41357421875,0.19921875,6.34765625,8.97216796875,-86.24267578125,-0.035232335329055786,0.0005922295385971665,0.7931162118911743,-0.6080502867698669
0,1651608971,464018522,-1.313683260075639,4.105213056763056,111.38871256961642,-0.4892578125,0.00048828125,0.82666015625,10.009765625,-0.3662109375,-82.763671875,-0.03604143112897873,-0.010721934027969837,0.825689971446991,-0.5628696084022522
0,1651608971,494489062,-1.4901786566016475,4.284666458808209,114.07062732835695,-0.16015625,0.091796875,1.0283203125,1.64794921875,5.55419921875,-84.65576171875,-0.03843188285827637,-0.009435960091650486,0.8386132717132568,-0.5432878732681274
0,1651608971,550748162,-1.690321875581533,4.927225469600444,118.90097126033581,-0.2109375,0.17138671875,1.04296875,-1.52587890625,-2.74658203125,-70.00732421875,-0.044504549354314804,-0.009155030362308025,0.8606230020523071,-0.5072117447853088
0,1651608971,614743459,-2.0589976644539556,4.391206310803007,121.84158626407974,0.0283203125,0.01318359375,0.94384765625,-1.03759765625,-1.220703125,-30.21240234375,-0.04220252111554146,-0.002926036948338151,0.873500645160675,-0.4849814176559448
0,1651608971,651012571,-2.126203310792296,4.423118235265775,122.57823582644396,0.111328125,0.07275390625,2.18408203125,33.87451171875,8.85009765625,-7.26318359375,-0.04274550452828407,-0.0022744068410247564,0.8765948414802551,-0.47932174801826477
0,1651608971,715870598,-2.5629877183556764,4.1111873378527015,123.204318286524,-0.23193359375,0.0078125,0.7978515625,9.6435546875,3.2958984375,-9.27734375,-0.042174503207206726,0.0026057776995003223,0.8792620301246643,-0.4744604825973511
0,1651608971,754873634,-2.7711076377907844,4.3357643846495435,123.72874021099759,-0.0966796875,0.1279296875,1.103515625,-2.9296875,6.2255859375,-25.87890625,-0.044742174446582794,0.0034747777972370386,0.881376326084137,-0.4702785313129425
0,1651608971,817769908,-2.7931023410221063,5.218422900901121,126.78828246856978,-0.23974609375,0.15380859375,0.97900390625,5.9814453125,4.94384765625,-66.71142578125,-0.05159463733434677,0.0013869134709239006,0.8934130668640137,-0.44626131653785706
0,1651608971,866473326,-2.756927311300192,6.210935618442246,131.03309477357095,-0.2119140625,0.109375,0.85888671875,8.97216796875,3.11279296875,-76.66015625,-0.059243619441986084,-0.0005837714998051524,0.9090216755867004,-0.4125160872936249
0,1651608971,917524422,-2.3600734702851756,6.760375672071935,134.94863731906418,-0.1240234375,0.10009765625,1.029296875,20.99609375,-7.32421875,-76.5380859375,-0.062327172607183456,-0.0035932851023972034,0.9223706126213074,-0.38122838735580444
0,1651608971,970184243,-2.2157919139275917,7.43429635021193,140.16340478809886,-0.306640625,-0.296875,0.7421875,-2.9296875,-7.568359375,-81.23779296875,-0.06751461327075958,-0.003942135255783796,0.9384531378746033,-0.33872100710868835
0,1651608972,31261549,-1.5600911922854288,7.388075606324808,145.44199354473815,0.00732421875,-0.24462890625,1.2880859375,-14.2822265625,8.056640625,-78.43017578125,-0.06555036455392838,-0.006162560079246759,0.9530580639839172,-0.2955429255962372
0,1651608972,77095938,-1.8157483745701795,7.264859847471424,148.26368129465382,-0.048828125,0.384765625,0.99365234375,13.18359375,-10.55908203125,-52.67333984375,-0.06525713205337524,-0.0021104388870298862,0.9601149559020996,-0.2718755900859833
0,1651608972,131539302,-1.9943061680604146,6.94689405103982,150.51936492842887,-0.0576171875,0.09521484375,0.94921875,1.220703125,-3.47900390625,-33.0810546875,-0.06300292909145355,0.0013860036851838231,0.9654344916343689,-0.2529129385948181
0,1651608972,174869178,-2.4874199994825363,6.920098365152214,151.89913144266316,-0.05712890625,0.3037109375,1.01904296875,3.7841796875,-2.0751953125,-31.79931640625,-0.06379303336143494,0.006368694361299276,0.9684039950370789,-0.24100543558597565
0,1651608972,235031176,-2.63083156049459,6.889878193169492,153.5438956363156,0.01025390625,0.13720703125,1.03759765625,3.2958984375,-2.62451171875,-12.939453125,-0.06372308731079102,0.008560373447835445,0.9717675447463989,-0.22701101005077362
0,1651608972,275607736,-3.009934593630389,6.451982385762104,153.73953957490144,-0.0302734375,0.14892578125,1.0634765625,3.7841796875,-6.77490234375,3.90625,-0.06074101850390434,0.012757275253534317,0.972313404083252,-0.22528763115406036
0,1651608972,311487979,-3.3548958589828217,5.91581893921845,153.07403326293206,0.0869140625,0.2236328125,1.02978515625,1.64794921875,-5.31005859375,25.20751953125,-0.056968946009874344,0.01642172411084175,0.971160352230072,-0.23093821108341217
0,1651608972,374880132,-3.8632834874929727,4.596757438779956,150.09071591649723,0.19384765625,0.17431640625,0.94091796875,2.74658203125,-9.46044921875,60.85205078125,-0.04741448163986206,0.022196270525455475,0.9651535153388977,-0.25639429688453674
0,1651608972,431208673,-3.7474571395478966,3.7804657362592757,146.03094709649002,-0.00390625,-0.28466796875,0.63916015625,3.7841796875,-2.197265625,66.162109375,-0.041075266897678375,0.021623611450195312,0.95566725730896,-0.29076698422431946
0,1651608972,474699126,-3.9304349192047763,3.2087556373973483,142.89976981490273,0.2529296875,0.0654296875,0.9609375,-1.953125,2.99072265625,75.0732421875,-0.037433214485645294,0.023596500977873802,0.947422206401825,-0.31691214442253113
0,1651608972,535111656,-3.0395191311334764,2.762213237387547,138.01968161519866,0.64013671875,-0.33740234375,1.68701171875,-10.3759765625,8.97216796875,82.58056640625,-0.031992726027965546,0.016123902052640915,0.9332714080810547,-0.35738086700439453
0,1651608972,575028816,-2.6978969745115333,2.4561178828466024,135.14753242769496,0.19970703125,-0.580078125,1.3779296875,-7.62939453125,6.34765625,80.87158203125,-0.028784504160284996,0.013582093641161919,0.9240955710411072,-0.38083407282829285
0,1651608972,630367519,-2.837131661402713,1.728813299927434,129.90049914502112,-0.0380859375,0.20849609375,1.4716796875,0.244140625,-1.64794921875,84.89990234375,-0.024143654853105545,0.0160394087433815,0.9057179093360901,-0.4228888750076294
0,1651608972,676196820,-2.9415116795159055,0.8249913358108659,125.80022730323573,0.17822265625,-0.24755859375,0.8447265625,-5.9814453125,-5.18798828125,94.78759765625,-0.01809883676469326,0.01956973597407341,0.8899815678596497,-0.45521676540374756
0,1651608972,735403030,-3.0115209050651246,-0.10720271384961945,119.84667925281578,0.3193359375,-0.0009765625,1.13916015625,5.92041015625,0.06103515625,94.23828125,-0.012359878979623318,0.0232080090790987,0.865044116973877,-0.5010063648223877
0,1651608972,793393480,-3.483588362333498,-0.8885635349541712,116.29446179003223,0.244140625,0.1162109375,0.92041015625,10.3759765625,-9.27734375,95.947265625,-0.009456968866288662,0.029907504096627235,0.8488646149635315,-0.5276787877082825
0,1651608972,835384907,-3.433669284454225,-1.8499520409428993,110.21995791960052,0.27880859375,0.30029296875,1.15380859375,18.85986328125,-12.51220703125,94.05517578125,-0.003899418981745839,0.03380127623677254,0.8194997906684875,-0.572068452835083
0,1651608972,895705147,-2.4436305894965265,-2.045003033731423,103.800522665894,0.44873046875,-0.38232421875,1.19873046875,16.7236328125,7.38525390625,91.30859375,0.0008848337456583977,0.027785753831267357,0.7863988280296326,-0.6170931458473206
0,1651608972,955061696,-2.0792555786453906,-2.4737583404820414,99.39255080199955,0.33203125,-0.41552734375,0.53076171875,-11.41357421875,17.51708984375,49.74365234375,0.0047258175909519196,0.02779415249824524,0.7620697617530823,-0.6468809247016907
0,1651608972,989788547,-2.1334343466892243,-2.1854441027847558,98.48345262347084,0.2783203125,0.0478515625,0.80078125,4.8828125,6.53076171875,14.16015625,0.0022907701786607504,0.026547346264123917,0.7569699883460999,-0.6529062390327454
0,1651608973,35152370,-2.354752112591501,-1.425803269900631,98.31202853568186,-0.15771484375,0.16943359375,1.06005859375,1.15966796875,7.6904296875,-7.01904296875,-0.004026728216558695,0.02367842197418213,0.756107747554779,-0.65400630235672
0,1651608973,96635825,-2.6395031259761557,0.19433114154281442,100.71624829333719,-0.23828125,0.08203125,1.2626953125,-3.72314453125,21.66748046875,-61.95068359375,-0.015999622642993927,0.016654033213853836,0.7698667049407959,-0.6377866864204407
0,1651608973,154490690,-2.0316165032884324,1.4545972130072893,105.98177089809424,-0.27685546875,-0.4755859375,1.68310546875,-20.8740234375,23.193359375,-98.69384765625,-0.020805133506655693,0.006516088265925646,0.7984854578971863,-0.601619303226471
0,1651608973,194834607,-1.9333226106125443,2.647985153708254,110.35012766480261,-0.6826171875,-0.26904296875,1.61767578125,-12.3291015625,8.60595703125,-111.4501953125,-0.02859675884246826,0.0006521363975480199,0.8207874298095703,-0.5705172419548035
0,1651608973,256834485,-1.9420217102942017,4.406726635031391,117.39081643484599,-0.7099609375,0.1123046875,1.123046875,-5.2490234375,16.29638671875,-119.0185546875,-0.04164329916238785,-0.005504744593054056,0.8540014028549194,-0.5185722708702087
0,1651608973,295934066,-1.9696884587443961,5.113406181091237,122.58389122307673,-0.52490234375,0.1611328125,0.986328125,9.58251953125,3.84521484375,-120.4833984375,-0.04736695438623428,-0.0063640279695391655,0.8764444589614868,-0.479125440120697
0,1651608973,356185986,-1.637975412504261,6.052916203786238,130.27676060601877,-0.56005859375,0.1484375,0.765625,12.3291015625,5.37109375,-120.30029296875,-0.053900305181741714,-0.009244305081665516,0.9062850475311279,-0.4191141724586487
0,1651608973,396698705,-1.4710570084116679,6.635703802264869,134.78252711844945,-0.39453125,0.044921875,1.04638671875,17.578125,12.3291015625,-116.0888671875,-0.05834982171654701,-0.010416769422590733,0.9218139052391052,-0.3830743134021759
0,1651608973,450009767,-1.4949690738090595,7.3303058663248395,142.2733868264992,-0.5986328125,0.13037109375,1.24169921875,17.822265625,-3.0517578125,-115.234375,-0.06469614803791046,-0.0083462530747056,0.9445464015007019,-0.32183364033699036
0,1651608973,495168210,-1.9872392701469785,7.725229111682269,147.3383272659005,-0.572265625,0.16015625,0.4755859375,16.7236328125,-2.3193359375,-113.58642578125,-0.06950162351131439,-0.0023352401331067085,0.9576587677001953,-0.2793813645839691
0,1651608973,554921243,-1.713312292327796,8.478149038423101,154.5427971420516,-0.46044921875,0.03173828125,1.0380859375,10.009765625,-4.2724609375,-113.34228515625,-0.07537887245416641,-0.001741242129355669,0.9728910326957703,-0.21862781047821045
0,1651608973,591858652,-1.0202333604527383,8.529232876999274,158.4437913846127,-0.47119140625,-0.11083984375,0.94775390625,0.54931640625,-17.39501953125,-92.041015625,-0.0747084692120552,-0.0051839291118085384,0.9797238707542419,-0.18583036959171295
0,1651608973,655194964,-0.19555074385627158,7.9320011359733575,162.03910734105904,-0.10595703125,0.10009765625,1.08984375,6.77490234375,-21.1181640625,-21.66748046875,-0.06858230382204056,-0.009114835411310196,0.9853933453559875,-0.15560676157474518
0,1651608973,694641525,-0.5388477642483219,6.780945640531074,161.95254152351828,-0.00341796875,0.109375,0.89990234375,0.48828125,-31.8603515625,20.99609375,-0.059144023805856705,-0.004639690276235342,0.9859275221824646,-0.15629254281520844
0,1651608973,754614177,-0.8993175610806504,4.9517569477781915,158.8276070348324,0.08837890625,0.14306640625,1.095703125,2.3193359375,-14.46533203125,66.0400390625,-0.043902650475502014,-0.00022883067140355706,0.9820941090583801,-0.18320414423942566
0,1651608973,814838481,-1.719090952530744,3.2540086288564445,153.0277655614944,0.35595703125,0.15673828125,1.0634765625,9.33837890625,-16.78466796875,96.98486328125,-0.031103817746043205,0.007961088791489601,0.9720243811607361,-0.23267531394958496
0,1651608973,856539919,-2.4090711129567315,2.2133592993660094,149.06513569186313,0.263671875,0.1962890625,0.82421875,0.0,-14.83154296875,106.3232421875,-0.024215586483478546,0.015106701292097569,0.9634977579116821,-0.26619070768356323
0,1651608973,910523758,-2.990747311591354,1.0368900574042836,142.0882067377218,0.6171875,0.306640625,1.154296875,5.18798828125,-3.60107421875,111.75537109375,-0.017031587660312653,0.02174169011414051,0.9454848170280457,-0.3244931101799011
0,1651608973,976046882,-3.549848454358615,-0.24625361262322987,135.53626581411706,0.435546875,0.23876953125,1.0537109375,5.7373046875,-2.62451171875,103.759765625,-0.009730645455420017,0.029483387246727943,0.9251888394355774,-0.3782349228858948
0,1651608974,10252191,-3.9180603239760057,-0.9000038883705309,130.9994902428545,0.43505859375,0.23876953125,0.916015625,4.638671875,-7.9345703125,104.736328125,-0.00703335041180253,0.03436097875237465,0.909288227558136,-0.41468653082847595
0,1651608974,76341723,-3.9024960304048393,-1.8108174048762533,124.50622064422014,0.2919921875,0.177734375,0.91943359375,0.244140625,-0.42724609375,101.1962890625,-0.0018735482590273023,0.03748263046145439,0.884138822555542,-0.46571463346481323
0,1651608974,114936785,-3.8432513964309716,-2.4674487397928306,120.09223821385608,0.23974609375,0.0966796875,1.02783203125,-3.2958984375,1.89208984375,99.91455078125,0.0019055254524573684,0.0397910550236702,0.8653791546821594,-0.49953174591064453
0,1651608974,178920273,-3.086407312568556,-3.422989856800087,113.47245302122556,0.2900390625,-0.21728515625,0.4697265625,12.0849609375,-20.20263671875,105.95703125,0.010199414566159248,0.03888401389122009,0.8350369930267334,-0.5487233400344849
0,1651608974,216115765,-2.7166375194901673,-3.6890248711984377,109.44348835437512,0.6318359375,0.07666015625,1.072265625,1.64794921875,10.80322265625,105.65185546875,0.01258527860045433,0.037926096469163895,0.8152639269828796,-0.5777091979980469
0,1651608974,274502061,-2.695734365865578,-4.373986550131758,102.63566805389416,0.595703125,0.12646484375,0.84423828125,8.48388671875,9.70458984375,108.88671875,0.015090284869074821,0.042192909866571426,0.7792795300483704,-0.6250723600387573
0,1651608974,315112861,-2.5555536977743523,-4.543487512782557,98.36935431338578,0.306640625,0.11083984375,1.09619140625,-0.18310546875,15.68603515625,82.21435546875,0.015428101643919945,0.0427660308778286,0.7554596662521362,-0.6536158919334412
0,1651608974,350389992,-2.514346739624842,-4.261742636406353,95.97014791458125,0.41552734375,0.04150390625,1.095703125,-3.7841796875,22.52197265625,46.38671875,0.01294372882694006,0.041170455515384674,0.7417320013046265,-0.6693065762519836
0,1651608974,414492010,-2.442614171970664,-3.7506267742096058,94.78433145201866,0.03369140625,0.10546875,1.19921875,-5.06591796875,16.54052734375,5.18798828125,0.009658445604145527,0.03782767802476883,0.7349710464477539,-0.6769737601280212
0,1651608974,470198719,-2.0424156726964573,-2.881743041966651,94.54194852894241,0.0,-0.04541015625,0.8671875,1.5869140625,10.68115234375,-2.9296875,0.006378762889653444,0.030146924778819084,0.7339179515838623,-0.6785389184951782
0,1651608974,518609172,-1.3889459683136556,-1.992885488713052,95.30111722500017,-0.1943359375,-0.32861328125,0.88818359375,-2.9296875,5.31005859375,-31.43310546875,0.00468760309740901,0.02067047543823719,0.7387420535087585,-0.6736550331115723
0,1651608974,574350602,-1.6091382471067615,-0.3538372829418494,99.11555931039885,-0.25830078125,0.0244140625,0.69384765625,11.90185546875,15.5029296875,-83.55712890625,-0.006758904084563255,0.012689503841102123,0.7609537243843079,-0.6486468315124512
0,1651608974,615453600,-1.905142103870718,0.505307800163857,103.16754171475223,-0.3759765625,-0.39013671875,0.91162109375,-7.8125,18.73779296875,-98.9990234375,-0.013784549199044704,0.01028600987046957,0.7834471464157104,-0.6212205290794373
0,1651608974,675828306,-2.33738038021122,1.8398158267711888,109.86223359201027,-0.166015625,-0.45654296875,1.0537109375,5.859375,-5.31005859375,-108.82568359375,-0.02485473081469536,0.007468757685273886,0.8183742761611938,-0.5740992426872253
0,1651608974,714693259,-3.1498866638278313,2.6540623145222724,114.05069000616967,-0.4951171875,0.16845703125,0.763671875,28.86962890625,5.615234375,-115.3564453125,-0.03437591716647148,0.01045092660933733,0.8387160301208496,-0.543382465839386
0,1651608974,776121899,-3.2671482052722567,4.09942447144147,121.5611660175157,-0.69580078125,0.1650390625,1.056640625,2.86865234375,4.57763671875,-123.84033203125,-0.045109979808330536,0.007411529775708914,0.8723415732383728,-0.4867549538612366
0,1651608974,814673632,-3.2185936711231053,4.9459704968907205,126.94532217796672,-0.548828125,0.140625,0.9208984375,5.859375,9.3994140625,-120.91064453125,-0.05112176388502121,0.005840289406478405,0.8940767049789429,-0.444948673248291
0,1651608974,875194387,-2.5068170963951375,6.141678780918785,134.60685465299673,-0.453125,-0.1689453125,1.17822265625,-4.82177734375,18.310546875,-116.63818359375,-0.057838454842567444,-0.0005138586857356131,0.9214681386947632,-0.3841235339641571
0,1651608974,935842248,-1.6271012177370718,5.930846636052948,141.27059211293627,-0.14208984375,-0.349609375,1.12109375,-1.0986328125,-12.451171875,-81.298828125,-0.053503360599279404,-0.0037745346780866385,0.9423123598098755,-0.3304096460342407
0,1651608974,972829610,-0.43653377163735235,5.774619719167246,143.93896943674184,-0.4501953125,-0.62548828125,1.6171875,-31.31103515625,-2.0751953125,-53.22265625,-0.04907534644007683,-0.011973327957093716,0.9497371912002563,-0.30894580483436584
0,1651608975,35162324,-0.6634505317508943,4.1537351475136495,144.29114765072603,0.18603515625,0.201171875,1.361328125,15.68603515625,-22.15576171875,21.728515625,-0.036268219351768494,-0.00560385175049305,0.9512617588043213,-0.30619344115257263
0,1651608975,70038842,-1.148763433367215,2.883030319181787,142.20630070847133,0.3740234375,0.0830078125,1.1123046875,3.7841796875,-12.939453125,62.5,-0.027045099064707756,0.0013344610342755914,0.9458379149436951,-0.3235081434249878
0,1651608975,114620830,-1.5706259053065272,1.9783692022926593,139.26048110057985,0.20166015625,0.07568359375,0.9736328125,3.47900390625,-28.076171875,90.02685546875,-0.02095257118344307,0.006838337983936071,0.9373204112052917,-0.347771018743515
0,1651608975,177193164,-1.9458295407564838,0.21209691714126713,131.99176646509562,0.5224609375,0.11572265625,0.95654296875,-1.15966796875,-16.90673828125,114.2578125,-0.0085979662835598,0.014758409932255745,0.9133958220481873,-0.4067142605781555
0,1651608975,236877493,-2.2325886297571222,-1.1320789887721665,124.87619833118139,0.79248046875,0.06884765625,1.17626953125,3.90625,-16.845703125,117.61474609375,-0.0002576428232714534,0.021840233355760574,0.8862108588218689,-0.4627668559551239
0,1651608975,277193185,-2.5436527334758394,-1.7355717721111616,120.5644228515574,0.6943359375,0.1474609375,1.03173828125,17.822265625,-5.92041015625,115.41748046875,0.002148185158148408,0.02678031660616398,0.8679974675178528,-0.49584123492240906
0,1651608975,334603340,-2.7689439619277714,-2.789605711053883,113.15738322500205,0.66796875,0.14501953125,1.11181640625,19.71435546875,-12.26806640625,114.19677734375,0.007006674539297819,0.03356320783495903,0.8338282704353333,-0.5509580969810486
0,1651608975,370374909,-2.9033610175765645,-3.652291686955286,108.09865825774547,0.46484375,0.28857421875,1.076171875,2.25830078125,-10.986328125,115.6005859375,0.010922982357442379,0.03920061141252518,0.8083779811859131,-0.587255597114563
0,1651608975,437673385,-2.8968386138060254,-4.461496214438431,101.46010370527576,0.67431640625,0.244140625,0.92041015625,-0.18310546875,4.0283203125,117.24853515625,0.014136726967990398,0.04418400302529335,0.77271568775177,-0.6330548524856567
0,1651608975,475716920,-2.3495037525445808,-4.951409461904166,96.91756345435373,0.46923828125,0.0,1.08349609375,-18.37158203125,0.3662109375,83.49609375,0.01874101534485817,0.043970491737127304,0.747035801410675,-0.6630634069442749
0,1651608975,537786911,-1.446754555014528,-4.31060111397357,93.64054114341916,0.6689453125,-0.41650390625,1.12890625,-20.20263671875,28.01513671875,25.20751953125,0.018789110705256462,0.03493260592222214,0.7283118963241577,-0.6840967535972595
0,1651608975,569832128,-1.189713512370909,-3.305545607795364,93.76960439797571,-0.1337890625,0.0869140625,1.1142578125,-7.4462890625,7.50732421875,-21.1181640625,0.013960389420390129,0.027287252247333527,0.7294333577156067,-0.683364987373352
0,1651608975,612836816,-1.3557571186412116,-2.0540688291941454,95.69551966843338,-0.26416015625,-0.44482421875,0.697265625,-7.2021484375,10.80322265625,-62.3779296875,0.005348910111933947,0.020797746255993843,0.7410509586334229,-0.6711053252220154
0,1651608975,674685492,-1.8806750856032628,-0.38458463347070476,100.14449998810458,-0.48193359375,0.052734375,1.31982421875,12.63427734375,31.55517578125,-94.66552734375,-0.00795971229672432,0.014738712459802628,0.7667114734649658,-0.6417732834815979
0,1651608975,735969970,-2.558139351262025,1.4235105674953283,107.0495890125557,-0.45166015625,0.12451171875,0.60302734375,6.65283203125,19.4091796875,-117.431640625,-0.023255258798599243,0.010565333999693394,0.804016649723053,-0.5940578579902649
0,1651608975,772314474,-2.7834410384411234,2.7607302325640077,112.1900098724748,-0.66552734375,0.21923828125,0.9150390625,-2.74658203125,15.625,-120.91064453125,-0.03353176638484001,0.006718446966260672,0.8298044204711914,-0.5570054650306702
0,1651608975,815011030,-2.7536074124767427,3.6756129409894713,117.33098397771668,-0.61572265625,0.13720703125,1.0283203125,7.38525390625,1.64794921875,-116.3330078125,-0.039873428642749786,0.0038395742885768414,0.8538606762886047,-0.5189580321311951
0,1651608975,874925217,-3.1842201037947815,4.801542304909393,123.93452015031173,-0.5205078125,0.146484375,1.02392578125,12.939453125,-0.9765625,-118.2861328125,-0.05000670999288559,0.00482355197891593,0.8821109533309937,-0.46835488080978394
0,1651608975,938277657,-3.3678990450586452,5.658248663635861,131.3803415909744,-0.5517578125,0.1064453125,0.8603515625,-0.8544921875,14.0380859375,-119.68994140625,-0.05704435706138611,0.006437743082642555,0.9104259014129639,-0.40966954827308655
0,1651608975,977960446,-2.634339502963626,6.414117524550846,136.72066159733228,-0.26171875,-0.10400390625,1.25341796875,-0.54931640625,22.39990234375,-119.07958984375,-0.0604514479637146,0.0007082634256221354,0.9282946586608887,-0.3668981194496155
0,1651608976,15009280,-2.0558504413504606,6.989837157898982,141.8330855118435,-0.35693359375,-0.0224609375,1.041015625,-4.638671875,-6.77490234375,-106.99462890625,-0.06345498561859131,-0.003005092265084386,0.9434914588928223,-0.3252510130405426
0,1651608976,76629921,-1.5415417858818492,6.623279261277792,146.75344450689397,-0.4033203125,0.02880859375,1.1640625,2.3193359375,-30.33447265625,-47.05810546875,-0.059189457446336746,-0.0036559628788381815,0.9567421078681946,-0.28482958674430847
0,1651608976,114970580,-1.1210575180509987,5.796276541478064,147.62264072029146,0.0166015625,-0.41943359375,1.0654296875,-18.37158203125,-16.05224609375,-6.9580078125,-0.05127738043665886,-0.004712663125246763,0.9592125415802002,-0.27795645594596863
0,1651608976,179539516,-0.9242909738420385,4.704977944197399,146.62578827130642,-0.009765625,0.27978515625,1.61474609375,-3.0517578125,-13.48876953125,30.33447265625,-0.04163137078285217,-0.00406641373410821,0.9571438431739807,-0.2865765392780304
0,1651608976,215444207,-1.702150802728643,3.202224482446935,143.8231567491751,0.24072265625,0.1220703125,1.16259765625,9.27734375,-12.39013671875,77.45361328125,-0.031167209148406982,0.005439626984298229,0.9502314329147339,-0.3099343776702881
0,1651608976,275796512,-1.7930969059614783,1.5386834584359046,137.71062921563393,0.40966796875,0.06591796875,0.75927734375,12.939453125,-25.87890625,104.6142578125,-0.01816536672413349,0.009749382734298706,0.9325500726699829,-0.36045175790786743
0,1651608976,319223509,-2.0636513711562614,0.8664501038251673,133.70017436143422,0.42578125,0.0810546875,1.087890625,3.35693359375,-10.986328125,110.2294921875,-0.014030523598194122,0.013585222885012627,0.9193574786186218,-0.3929380774497986
0,1651608976,355720336,-2.1168299433735114,-0.053632369585499155,128.67964381201634,0.35107421875,-0.3388671875,0.78271484375,-12.14599609375,5.859375,115.78369140625,-0.007577080745249987,0.016852693632245064,0.9012206196784973,-0.43296653032302856
0,1651608976,410087763,-2.2040252055349523,-1.2582723899385584,121.28689294120467,0.57568359375,0.09326171875,1.12353515625,7.32421875,-1.77001953125,116.0888671875,0.0001404221693519503,0.022143825888633728,0.8712685704231262,-0.49030688405036926
0,1651608976,477445888,-2.6455051547093045,-2.677941723077695,114.03390823137896,0.59912109375,0.14794921875,0.796875,-4.0283203125,9.1552734375,113.22021484375,0.007032560184597969,0.0320761539041996,0.8380855321884155,-0.5445496439933777
0,1651608976,520851444,-2.739593358403757,-3.258694352070485,108.9099208066029,0.60400390625,0.1328125,1.044921875,3.7841796875,-8.1787109375,118.83544921875,0.009237178601324558,0.035967763513326645,0.8127022385597229,-0.5814948081970215
0,1651608976,573478273,-2.811649292826453,-4.136731818461726,101.7435087445071,0.50048828125,0.14892578125,0.7919921875,7.01904296875,-4.94384765625,107.2998046875,0.012517199851572514,0.04178861156105995,0.7744379043579102,-0.6311442852020264
0,1651608976,612742848,-2.6575040895337243,-4.332077790045029,98.37768031398403,0.53271484375,0.06494140625,1.14501953125,3.173828125,10.6201171875,74.15771484375,0.013453738763928413,0.042233776301145554,0.7555508017539978,-0.6535887122154236
0,1651608976,674909161,-1.7260414170631724,-3.6505102882423817,95.81230224286226,-0.02197265625,-0.85595703125,1.61962890625,-30.6396484375,17.333984375,19.59228515625,0.013540888205170631,0.03252005577087402,0.741265594959259,-0.6702869534492493
0,1651608976,712017835,-1.662666119467034,-3.3373298930980186,95.37737628708335,0.31689453125,0.15087890625,0.970703125,-3.5400390625,22.0947265625,4.2724609375,0.011768901720643044,0.030324852094054222,0.7388224005699158,-0.6731147170066833
0,1651608976,775054047,-1.5834904598865405,-2.971160463485873,94.8930134220919,-0.06103515625,0.341796875,1.2724609375,-15.19775390625,2.5634765625,7.4462890625,0.009754243306815624,0.027706731110811234,0.7360860705375671,-0.6762502789497375
0,1651608976,810635278,-1.8900379942948808,-2.5876318946547285,94.92081229201385,-0.033203125,0.13525390625,0.84912109375,-11.41357421875,20.81298828125,-15.2587890625,0.005486463196575642,0.027412936091423035,0.7362704873085022,-0.6761096715927124
0,1651608976,875921664,-2.7579968762355334,-0.9818079968427159,97.57149942586908,-0.083984375,0.2451171875,0.88818359375,6.103515625,21.484375,-63.3544921875,-0.009412510320544243,0.023746293038129807,0.7518697381019592,-0.6588166952133179
0,1651608976,912361466,-3.4207467799879727,0.18443969360331366,100.63517394788913,-0.31201171875,0.28271484375,0.943359375,13.671875,7.080078125,-94.05517578125,-0.020296506583690643,0.02194296568632126,0.7692824006080627,-0.6382094621658325
0,1651608976,974699045,-3.759247753602631,2.103166149938901,107.28374838787124,-0.501953125,0.1923828125,0.85009765625,8.36181640625,10.43701171875,-109.80224609375,-0.034213270992040634,0.015535978600382805,0.805115282535553,-0.5919268727302551
0,1651608977,14591212,-3.7775663209566055,2.7905967288137696,112.04744333392912,-0.5107421875,0.04541015625,0.80322265625,-1.03759765625,5.859375,-103.3935546875,-0.03859579935669899,0.013723526149988174,0.8290212154388428,-0.5577147603034973
0,1651608977,74742010,-3.658947706301463,3.108417170282099,116.86587541599549,-0.21630859375,0.01611328125,1.041015625,-1.8310546875,-21.3623046875,-47.79052734375,-0.039803970605134964,0.012999512255191803,0.8517337441444397,-0.52229905128479
0,1651608977,111268629,-3.3540570263753797,2.9152056328144247,118.11638743037645,-0.0322265625,-0.6572265625,0.7392578125,-14.09912109375,-6.65283203125,-21.240234375,-0.03685039281845093,0.012019208632409573,0.8574279546737671,-0.5131422281265259
0,1651608977,174642990,-3.08364642203999,2.8798480913587956,119.16913814752886,-0.33642578125,0.5439453125,0.9384765625,20.8740234375,-0.732421875,-17.333984375,-0.0352802537381649,0.010479111224412918,0.8621352314949036,-0.5053399205207825
0,1651608977,215479937,-3.3196328729585156,3.439554132754426,120.0200294539507,-0.12939453125,0.1181640625,0.9248046875,-3.90625,25.634765625,-30.45654296875,-0.04045393317937851,0.01008104532957077,0.8657939434051514,-0.4986608326435089
0,1651608977,274616482,-3.555203109224493,4.75782610601355,123.59986820173778,-0.30126953125,0.177734375,1.00927734375,-0.1220703125,9.58251953125,-81.60400390625,-0.05120939388871193,0.0077092647552490234,0.8807280659675598,-0.470782607793808
0,1651608977,335053205,-3.534732178508319,6.3643578889000105,129.79728132628387,-0.51708984375,0.21728515625,1.02197265625,5.859375,3.0517578125,-107.60498046875,-0.06330793350934982,0.0043479884043335915,0.9044585824012756,-0.42181500792503357
0,1651608977,377030135,-3.107211001563357,7.117840025586899,134.46508724658395,-0.47216796875,0.10400390625,1.12255859375,-0.79345703125,-3.173828125,-95.5810546875,-0.06768918037414551,0.0009378317627124488,0.9206178784370422,-0.3845517337322235
0,1651608977,414691841,-2.8354017025519953,7.593555871089118,137.70677698894204,-0.39111328125,0.11181640625,1.046875,-3.11279296875,-4.0283203125,-81.48193359375,-0.07064567506313324,-0.0008568130433559418,0.9309195280075073,-0.35832586884498596
0,1651608977,471019485,-1.8333410208814283,8.58041319199747,143.5002663863519,-0.55615234375,0.17333984375,0.7978515625,2.38037109375,12.14599609375,-99.42626953125,-0.07603231817483902,-0.00827313307672739,0.9472923278808594,-0.3111075162887573
0,1651608977,510174171,-1.2015357160505549,9.15151433680621,148.14431690871868,-0.43798828125,-0.125,0.998046875,6.28662109375,13.36669921875,-106.4453125,-0.07957839220762253,-0.011841264553368092,0.9587200284004211,-0.2727324366569519
0,1651608977,574985766,-1.0000584757484015,9.5905768259012,154.72819579688243,-0.44970703125,0.14013671875,0.876953125,20.751953125,-9.521484375,-86.36474609375,-0.08347048610448837,-0.009800435043871403,0.9724869728088379,-0.2172688990831375
0,1651608977,612724433,-0.4921807635484743,9.335553783992204,157.42489108498688,-0.35009765625,-0.1044921875,1.3525390625,0.732421875,-12.8173828125,-50.6591796875,-0.08064106106758118,-0.0117301931604743,0.9774641394615173,-0.19473938643932343
0,1651608977,674973147,-0.8132715849687703,8.207758070881574,158.39110330535522,-0.05224609375,0.09912109375,1.0888671875,-7.32421875,-16.78466796875,11.71875,-0.07162153720855713,-0.006461672484874725,0.9798246622085571,-0.18647333979606628
0,1651608977,734763716,-1.9081014967720376,6.377175592651186,155.70905194283128,0.4375,0.427734375,1.029296875,5.43212890625,-12.3291015625,64.51416015625,-0.057867828756570816,0.004551583901047707,0.9761626720428467,-0.2091343104839325
0,1651608977,775817083,-2.9354110399266147,5.330589121224717,152.42246053686952,0.37890625,0.53125,1.0634765625,15.9912109375,-12.5732421875,80.4443359375,-0.051244642585515976,0.013768771663308144,0.9700961112976074,-0.23685050010681152
0,1651608977,835200255,-4.022610029601391,4.734772510017464,147.67924932813253,0.08154296875,0.666015625,1.04443359375,6.28662109375,4.45556640625,66.83349609375,-0.049410317093133926,0.0221913680434227,0.9594789147377014,-0.276525616645813
0,1651608977,875662381,-4.708387489253705,4.189227798648798,145.08599042481876,0.15478515625,0.7236328125,0.95458984375,1.0986328125,-7.62939453125,67.138671875,-0.047151364386081696,0.02820347063243389,0.9529507160186768,-0.2981044054031372
0,1651608977,941025856,-5.460178727234192,3.7031304924949833,141.67668784022854,0.09033203125,0.82275390625,0.96728515625,2.25830078125,-1.8310546875,33.14208984375,-0.046111516654491425,0.034375276416540146,0.9435366988182068,-0.32623714208602905
0,1651608977,992624703,-6.075074191227406,3.4507693033715867,140.480066018399,-0.0693359375,0.71435546875,0.9208984375,0.48828125,1.3427734375,15.44189453125,-0.04620319977402687,0.03968236967921257,0.9399083256721497,-0.33595097064971924
0,1651608978,31484281,-6.3798735173733405,3.482681654721179,139.775163175297,-0.09033203125,0.482421875,0.99169921875,-3.72314453125,3.23486328125,12.6953125,-0.04761602729558945,0.0417957566678524,0.9377133250236511,-0.34158405661582947
0,1651608978,96334884,-6.798059533270188,3.551031571188908,139.56677410371992,-0.03076171875,0.28125,0.87451171875,-8.056640625,0.3662109375,-4.5166015625,-0.04950252175331116,0.044921912252902985,0.9369271397590637,-0.3430730104446411
0,1651608978,135131037,-6.5720942505245405,3.475013059830547,139.7130494349849,0.06201171875,0.0859375,1.0849609375,-6.40869140625,3.41796875,-4.5166015625,-0.048149798065423965,0.04336563125252724,0.9374571442604065,-0.3420162796974182
0,1651608978,195224843,-5.853759840419714,3.397242604950078,140.16467520328447,-0.0390625,0.06591796875,0.98681640625,-4.45556640625,4.638671875,-5.79833984375,-0.04522017389535904,0.037901025265455246,0.9390597343444824,-0.33865252137184143
0,1651608978,236106655,-5.429305845298911,3.2152396213538057,140.38636948336477,0.00830078125,0.04150390625,1.00048828125,-1.46484375,2.0751953125,-5.0048828125,-0.04240751639008522,0.03504684194922447,0.939864993095398,-0.33708620071411133
0,1651608978,290320064,-4.558549360562904,3.0840214421141057,140.61591848099056,0.05810546875,-0.14599609375,1.04541015625,-4.638671875,2.50244140625,-0.6103515625,-0.038712453097105026,0.028370408341288567,0.9407923817634583,-0.335568368434906
0,1651608978,334901636,-4.049881267409959,3.073295697239659,140.5681891190705,-0.02490234375,-0.1064453125,0.97314453125,-1.15966796875,1.40380859375,3.90625,-0.03714457526803017,0.024210117757320404,0.9407704472541809,-0.3361327648162842
0,1651608978,395024082,-3.6813118800782005,2.9562166499121196,140.25118637931186,-0.08447265625,0.0458984375,1.0380859375,-1.953125,1.3427734375,6.4697265625,-0.03516199067234993,0.02143213525414467,0.9399237036705017,-0.338891863822937
0,1651608978,455094303,-4.073978601688587,2.646711109984635,139.8039729132161,0.02001953125,0.09326171875,1.02978515625,-0.91552734375,0.18310546875,5.9814453125,-0.03388567641377449,0.02544032596051693,0.938544511795044,-0.3425474464893341
0,1651608978,495161161,-4.282208871367474,2.3290341024888757,139.5792870102794,-0.01025390625,0.08740234375,1.001953125,-1.708984375,-0.9765625,4.8828125,-0.03196287900209427,0.02803697995841503,0.9378440976142883,-0.34444287419319153
0,1651608978,535440725,-4.469345382455245,2.006166151223907,139.38819197768075,0.01318359375,0.09814453125,1.02685546875,-1.15966796875,-0.1220703125,4.21142578125,-0.029935352504253387,0.03049303963780403,0.9372332692146301,-0.3460751175880432
0,1651608978,598608810,-4.931804684552114,1.6502055065434036,139.15515958357827,-0.04150390625,0.1123046875,0.97119140625,-0.18310546875,0.6103515625,3.35693359375,-0.02849412150681019,0.035296183079481125,0.9363968372344971,-0.3479990065097809
0,1651608978,631206035,-5.041216204206079,1.4353815429945163,139.03873217898624,0.0234375,0.09326171875,0.98193359375,-0.732421875,0.6103515625,2.25830078125,-0.027109183371067047,0.03681721165776253,0.9360034465789795,-0.34900882840156555
0,1651608978,694449961,-5.101746194404378,1.2928042255565562,138.9278372276219,-0.029296875,0.0966796875,1.00341796875,-2.197265625,0.0,0.67138671875,-0.026165945455431938,0.037721820175647736,0.9356401562690735,-0.3499571681022644
0,1651608978,745224606,-5.091074450713057,1.1578209045368866,138.88699269638522,0.00927734375,0.078125,0.98583984375,0.6103515625,1.15966796875,0.67138671875,-0.025045165792107582,0.03803906962275505,0.9355123043060303,-0.35034647583961487
0,1651608978,790175367,-4.913331157281346,1.1009368479731991,138.88301752628828,-0.05126953125,0.0634765625,0.94873046875,-0.244140625,-1.0986328125,-0.48828125,-0.024038715288043022,0.03676145151257515,0.935555100440979,-0.35043904185295105
0,1651608978,852238638,-4.547843892812555,1.0469678948029317,138.90352175417667,-0.02392578125,-0.0126953125,1.00537109375,-2.13623046875,-0.06103515625,0.06103515625,-0.02247425727546215,0.033946771174669266,0.9357278943061829,-0.350365549325943
0,1651608978,895697859,-3.9221452039864966,1.0060313694558718,138.7823815190573,0.01416015625,-0.35400390625,0.966796875,-6.4697265625,-1.89208984375,7.080078125,-0.020257189869880676,0.028940994292497635,0.935526967048645,-0.3514847755432129
0,1651608978,955793041,-3.3458055175277694,0.8128063316924161,138.00905384085013,-0.005859375,0.0478515625,1.1318359375,1.220703125,3.90625,17.4560546875,-0.017078880220651627,0.024714332073926926,0.933261513710022,-0.35793912410736084
0,1651608978,994828109,-3.4086176446824994,0.7271713408695003,137.23743370993543,-0.01513671875,0.1357421875,0.88427734375,-2.13623046875,-0.1220703125,17.2119140625,-0.016749052330851555,0.02538144960999489,0.9308131337165833,-0.3642282783985138
0,1651608979,55191390,-3.704843589316187,0.5999609885687168,136.22905190163144,0.09619140625,0.0859375,1.0673828125,0.244140625,-0.18310546875,16.29638671875,-0.016904903575778008,0.02804458886384964,0.9274962544441223,-0.3723956346511841
0,1651608979,94656640,-4.037828971732648,0.5109383840000333,135.69988982587387,-0.12841796875,0.28466796875,0.95361328125,3.0517578125,1.64794921875,11.962890625,-0.017409682273864746,0.030949082225561142,0.9256747364997864,-0.3766503930091858
0,1651608979,155394806,-4.638162899302219,0.5091742208426131,135.04259340128687,-0.05615234375,0.14501953125,0.91455078125,2.197265625,-0.732421875,8.056640625,-0.019573474302887917,0.03569227457046509,0.9233245253562927,-0.3818569779396057
0,1651608979,214989885,-4.802141227122239,0.5115599845753575,134.6697060537392,0.03662109375,0.05908203125,1.0029296875,-2.86865234375,0.06103515625,5.55419921875,-0.02025941200554371,0.03693980723619461,0.9220254421234131,-0.3848300874233246
0,1651608979,251748091,-4.8939995874960935,0.5871962187836093,134.4640490578301,-0.060546875,0.10986328125,1.02783203125,0.42724609375,0.48828125,4.08935546875,-0.021243486553430557,0.03738659992814064,0.9213113784790039,-0.3864406645298004
0,1651608979,315118708,-4.629923556729068,0.3212098161222423,134.21447394555784,0.03369140625,0.05322265625,0.9521484375,0.67138671875,0.06103515625,3.60107421875,-0.018293200060725212,0.03612148389220238,0.9205231666564941,-0.3885843753814697
0,1651608979,355817349,-4.3929702071561625,0.4021732510375603,134.06595831224507,-0.0830078125,-0.15185546875,1.009765625,-4.7607421875,-1.8310546875,5.126953125,-0.0181839931756258,0.03391967713832855,0.9200999736785889,-0.3897883892059326
0,1651608979,414699331,-3.0699269198749612,0.558915553720907,133.26712670767708,-0.08447265625,-0.67578125,1.177734375,-10.498046875,1.89208984375,22.8271484375,-0.015099676325917244,0.022656043991446495,0.9176986217498779,-0.39634329080581665
0,1651608979,480434010,-2.6399650175187777,0.018411737070648058,131.2004480686146,0.23095703125,-0.568359375,0.72900390625,-15.0146484375,-4.638671875,47.91259765625,-0.009662476368248463,0.020912189036607742,0.9104451537132263,-0.41298794746398926
0,1651608979,518480649,-1.9766746750482613,-0.3071800472780808,129.0130663265397,0.05029296875,-0.56396484375,1.17333984375,-2.50244140625,-3.90625,51.025390625,-0.005004750099033117,0.01672298274934292,0.9024769067764282,-0.4303843677043915
0,1651608979,557271650,-1.3882284782856869,-0.2966292459598358,126.31540115157311,0.22314453125,-0.599609375,1.205078125,-2.50244140625,11.5966796875,66.71142578125,-0.003160527441650629,0.011977714486420155,0.8921701312065125,-0.4515298008918762
0,1651608979,615980318,-0.9546244842762998,-1.3351744502990839,121.47227793565715,0.7939453125,-0.1259765625,1.61572265625,-3.47900390625,13.48876953125,80.38330078125,0.006092032417654991,0.012962263077497482,0.8722409009933472,-0.4888668954372406
0,1651608979,675057662,-1.0152900110409415,-2.00622527504891,116.41836142157625,0.22705078125,-0.544921875,0.552734375,-0.8544921875,-21.484375,93.1396484375,0.010212843306362629,0.016752133145928383,0.8497318029403687,-0.5268501043319702
0,1651608979,716648667,-0.8864711491906201,-2.3780108277060985,113.03799151831022,0.2578125,-0.20166015625,0.76416015625,-0.6103515625,-0.9765625,84.77783203125,0.01304024551063776,0.01789776235818863,0.8337756991386414,-0.5516590476036072
0,1651608979,769997201,-1.0514840372264853,-2.2248408473608006,109.36091136730967,0.0546875,0.0615234375,1.0107421875,1.0986328125,15.2587890625,35.15625,0.010536285117268562,0.018709057942032814,0.8156493306159973,-0.5781481266021729
0,1651608979,812273111,-1.2029623718134415,-1.8460867942029067,108.68806943217172,0.033203125,-0.00439453125,0.845703125,7.75146484375,22.0947265625,-0.67138671875,0.006970263551920652,0.017918506637215614,0.8122830390930176,-0.5829466581344604
0,1651608979,875487342,-1.731986456405434,-0.28312481471238343,110.4571840498534,-0.13671875,0.12451171875,1.02783203125,10.1318359375,4.5166015625,-46.38671875,-0.006590154487639666,0.013823901303112507,0.8213163018226624,-0.5702674984931946
0,1651608979,915385237,-1.8783671219940332,0.39296476865420793,112.46130498630771,-0.19580078125,0.095703125,1.08642578125,0.91552734375,3.60107421875,-53.466796875,-0.011961258947849274,0.011719653382897377,0.831196665763855,-0.5557264089584351
0,1651608979,974705048,-2.9926954096086886,0.8611175937132385,115.63517095020758,-0.1123046875,0.419921875,0.87060546875,-2.74658203125,11.962890625,-41.748046875,-0.02026580460369587,0.01809944398701191,0.8461487293243408,-0.5322538614273071
0,1651608980,14718785,-3.4252169253563345,1.2540101384530589,117.24025174478223,-0.1640625,0.5458984375,1.02294921875,5.31005859375,5.55419921875,-35.15625,-0.02489941567182541,0.01981770619750023,0.853471577167511,-0.5201668739318848
0,1651608980,75369590,-4.085272746368027,1.4520773000903777,119.2038628292692,-0.19384765625,0.63720703125,1.009765625,-0.244140625,-5.615234375,-21.78955078125,-0.028956716880202293,0.02433313988149166,0.862142026424408,-0.5052530765533447
0,1651608980,117184214,-4.632443896532802,1.2316378538266821,119.70797177115116,-0.0087890625,0.7431640625,0.97314453125,-0.244140625,-4.94384765625,-10.7421875,-0.029581904411315918,0.02955329418182373,0.8642101287841797,-0.5013905167579651
0,1651608980,179372511,-5.206628871751802,0.7831877499651847,119.90544620043457,-0.00048828125,0.591796875,1.0361328125,0.3662109375,-9.33837890625,10.6201171875,-0.02865227311849594,0.03589724749326706,0.8648543953895569,-0.49991729855537415
0,1651608980,235014035,-4.815523275253586,0.23965725071058427,119.16449361889325,-0.14990234375,-1.16650390625,0.4638671875,-48.2177734375,-25.08544921875,22.94921875,-0.02307211048901081,0.03517045080661774,0.8616381287574768,-0.5057771801948547
0,1651608980,275418752,-3.628032562570693,0.0323832508711928,117.76882642427118,-0.06591796875,-0.60595703125,0.94091796875,-7.50732421875,-1.28173828125,34.60693359375,-0.016600189730525017,0.026954948902130127,0.8557021021842957,-0.5164995789527893
0,1651608980,334855878,-2.7295290746617433,-0.24561680420483198,114.59571178118001,0.02685546875,-0.47509765625,0.97607421875,11.04736328125,-4.94384765625,69.88525390625,-0.011064684949815273,0.021199751645326614,0.8412222862243652,-0.5401602983474731
0,1651608980,375546999,-2.3156217453930865,-0.5458108753028855,111.84981864048397,-0.0146484375,-0.59228515625,0.92578125,5.79833984375,-26.611328125,73.73046875,-0.007376528345048428,0.019404824823141098,0.8280715942382812,-0.5602380037307739
0,1651608980,435914088,-2.7068048218496994,-1.8494869477491036,107.49545010119579,0.19140625,0.09765625,1.01611328125,1.5869140625,-3.173828125,61.21826171875,-0.0009538633748888969,0.028585555031895638,0.8058657646179199,-0.5914071202278137
0,1651608980,494851975,-2.5531326091569944,-1.88501076162234,103.9908663776839,0.0439453125,-0.28369140625,0.77294921875,-7.62939453125,14.7705078125,38.330078125,-0.0007574952323921025,0.027677763253450394,0.787433922290802,-0.6157770752906799
0,1651608980,537050156,-1.9877348857486277,-1.5861338498170412,102.93778098126216,-0.1435546875,0.40185546875,1.1181640625,15.31982421875,-1.52587890625,10.7421875,2.182667412853334e-05,0.022188402712345123,0.7819278836250305,-0.6229738593101501
0,1651608980,572437272,-2.9708921651175384,-1.490295623591184,102.74556579763967,-0.05517578125,0.4873046875,0.78857421875,11.5966796875,-10.7421875,2.74658203125,-0.006024758797138929,0.028365574777126312,0.7806850075721741,-0.6242515444755554
0,1651608980,631039635,-3.1109208614997317,-1.4128227088264336,102.54682095317064,-0.044921875,0.20458984375,0.921875,4.45556640625,-8.056640625,2.0751953125,-0.0073657650500535965,0.02888513170182705,0.7795840501785278,-0.6255878210067749
0,1651608980,695580858,-1.872908306743312,-0.7688409909744258,102.76053074211117,0.33056640625,-0.26220703125,1.630859375,-7.080078125,15.2587890625,-13.916015625,-0.004959180485457182,0.016956038773059845,0.7811151742935181,-0.6241371035575867
0,1651608980,732792830,-1.7712035883506487,0.10814101775695656,104.30917368357402,-0.28466796875,0.18603515625,1.208984375,11.77978515625,16.4794921875,-46.38671875,-0.010227923281490803,0.011626231484115124,0.7895832657814026,-0.6134480834007263
0,1651608980,800306861,-2.395675831333867,1.6069133129846298,108.40050480773584,-0.330078125,0.18115234375,0.99951171875,9.33837890625,10.1318359375,-77.94189453125,-0.023597778752446175,0.008752696216106415,0.8109809160232544,-0.5845310091972351
0,1651608980,838576511,-2.657983269992683,2.1618472933062423,112.03759420114596,-0.33203125,0.2060546875,1.04150390625,6.40869140625,1.52587890625,-82.275390625,-0.028599536046385765,0.00868790689855814,0.8290949463844299,-0.5583083033561707
0,1651608980,895627653,-3.0600150347288038,2.6536326529347964,117.22571710222844,-0.40283203125,0.14697265625,1.06103515625,-0.79345703125,-0.18310546875,-83.0078125,-0.033662207424640656,0.010731869377195835,0.8534565567970276,-0.5199649930000305
0,1651608980,952357223,-3.5227921540654905,3.4619812723375745,122.0369296743421,-0.16943359375,0.1796875,1.0234375,0.732421875,4.57763671875,-73.42529296875,-0.04129806160926819,0.012246834114193916,0.8744134306907654,-0.48326557874679565
0,1651608980,997507154,-3.6440446604193184,4.29197305367283,125.26209035890876,-0.2392578125,0.1220703125,0.96923828125,3.173828125,3.662109375,-73.54736328125,-0.04784392565488815,0.01101033203303814,0.8875404596328735,-0.4581066966056824
0,1651608981,54822620,-3.679087372842892,5.007749984820309,129.42257714841696,-0.1279296875,0.185546875,1.02294921875,6.77490234375,5.67626953125,-73.54736328125,-0.053179554641246796,0.010343997739255428,0.903437077999115,-0.4252840280532837
0,1651608981,94899941,-3.8010634523619187,5.28378738437132,132.55487458102814,-0.27294921875,0.14208984375,1.0859375,-3.96728515625,-5.4931640625,-65.673828125,-0.05550365522503853,0.011796366423368454,0.9146430492401123,-0.40026015043258667
0,1651608981,150281110,-4.021008350241023,4.7907664008332285,135.3554707067868,-0.01123046875,0.03564453125,0.873046875,1.46484375,-13.24462890625,-24.35302734375,-0.051952630281448364,0.01656065136194229,0.924241840839386,-0.3778938949108124
0,1651608981,194650679,-3.4852229119792466,4.14079535413106,135.79732930457328,0.05078125,0.12939453125,1.26904296875,-1.220703125,-9.521484375,-2.197265625,-0.04489129036664963,0.014570220373570919,0.9259001612663269,-0.3748086094856262
0,1651608981,255263659,-3.483433615860115,2.9063159281662414,134.62816484320717,0.07421875,0.13232421875,1.05419921875,-5.2490234375,-9.3994140625,35.94970703125,-0.03510542958974838,0.01825731061398983,0.9222073554992676,-0.3846660554409027
0,1651608981,290034224,-3.746274663047838,1.874572951910091,132.39462468272131,0.25927734375,0.27587890625,1.01171875,0.91552734375,-5.18798828125,58.28857421875,-0.028148764744400978,0.023303916677832603,0.9145452976226807,-0.40282946825027466
0,1651608981,361275246,-4.164375728466883,0.9700000938716448,128.66168041449922,0.052734375,0.1865234375,0.91748046875,-7.32421875,-2.9296875,60.05859375,-0.023362288251519203,0.02908187359571457,0.9008162021636963,-0.4325954020023346
0,1651608981,395034150,-4.302685351612348,0.42597923505940505,126.39043760979487,0.10009765625,0.201171875,0.9931640625,-3.23486328125,-2.38037109375,58.7158203125,-0.020243844017386436,0.031830135732889175,0.8919758200645447,-0.4505065083503723
0,1651608981,450170099,-4.5247172991697155,-0.13481356680641088,122.79002633222771,0.17578125,0.1826171875,0.91357421875,-0.48828125,-1.77001953125,56.7626953125,-0.017867466434836388,0.03521982580423355,0.877234160900116,-0.4784356951713562
0,1651608981,496591599,-4.691587358329589,-0.5670777898616309,120.39691929235201,0.08642578125,0.236328125,0.99853515625,-5.2490234375,0.3662109375,50.78125,-0.01605142466723919,0.03797440975904465,0.8669136166572571,-0.49675044417381287
0,1651608981,554857477,-4.8414899469306825,-0.9476797827159835,117.32808797750859,0.0693359375,0.109375,0.97900390625,-2.8076171875,5.37109375,44.49462890625,-0.014907685108482838,0.04037211090326309,0.8531595468521118,-0.5198718309402466
0,1651608981,596824711,-4.5415870126460005,-0.8591664541272892,115.95016561435023,-0.14453125,0.140625,0.95556640625,-1.220703125,6.16455078125,15.869140625,-0.01465914212167263,0.037564411759376526,0.8469704389572144,-0.5301086902618408
0,1651608981,636306888,-4.80233674128723,-0.6455543689084031,115.63879095046768,0.0478515625,0.1357421875,1.0556640625,6.28662109375,4.69970703125,-0.67138671875,-0.017549188807606697,0.038456838577985764,0.8454912304878235,-0.5323134064674377
0,1651608981,694953283,-5.634083881239179,0.2062740207912726,116.53821758113165,-0.1376953125,0.12158203125,1.00390625,8.6669921875,3.7841796875,-24.169921875,-0.027376944199204445,0.04085512086749077,0.8495450019836426,-0.5252186059951782
0,1651608981,734689960,-5.939852240473609,0.9577614620960397,117.89805360336781,-0.15380859375,0.07177734375,1.2197265625,-2.0751953125,7.32421875,-38.14697265625,-0.03387431800365448,0.040080808103084564,0.8557515740394592,-0.514718770980835
0,1651608981,799740887,-6.411836668254885,1.7701152403950895,120.38795808416094,0.0087890625,0.09912109375,0.9755859375,13.0615234375,-0.06103515625,-38.75732421875,-0.04117707535624504,0.04085483029484749,0.8666812777519226,-0.49547845125198364
0,1651608981,852923402,-6.364919671959244,2.1049652644549646,122.89279335847972,0.2275390625,-0.68359375,0.826171875,-20.6298828125,9.82666015625,-41.8701171875,-0.04264027625322342,0.039989110082387924,0.87735515832901,-0.47626742720603943
0,1651608981,914719054,-6.110522019246126,3.062534947645715,126.38639413780622,-0.31689453125,-0.0556640625,1.11376953125,32.1044921875,-4.5166015625,-60.97412109375,-0.047845207154750824,0.035519905388355255,0.8915876746177673,-0.44891056418418884
0,1651608981,957110838,-6.603860606580623,3.4919261023193795,128.91389197979112,-0.541015625,0.1923828125,1.28955078125,27.9541015625,-12.0849609375,-59.50927734375,-0.05226850509643555,0.038828324526548386,0.9011021852493286,-0.42869019508361816
0,1651608982,17518888,-7.418102825463476,2.9966673780544624,130.96671899521678,0.39892578125,-0.1806640625,0.880859375,20.81298828125,6.65283203125,-13.85498046875,-0.05057497322559357,0.04800989478826523,0.9083265662193298,-0.41240784525871277
0,1651608982,55449973,-7.4721057161361815,3.149967558880814,131.79038516760696,-0.18408203125,0.10302734375,1.06884765625,5.67626953125,-16.05224609375,-11.71875,-0.05163700878620148,0.04825448617339134,0.9112473726272583,-0.40575045347213745
0,1651608982,115697637,-7.5015950578777115,2.586443441739146,131.81098501814373,0.08935546875,0.13916015625,0.90380859375,4.33349609375,-1.708984375,14.58740234375,-0.04725779965519905,0.05050830543041229,0.9112886786460876,-0.40591710805892944
0,1651608982,150340519,-7.431624038699162,1.5411774379783114,130.42173820134147,0.17822265625,0.0947265625,1.0625,2.197265625,-8.7890625,48.095703125,-0.039354123175144196,0.053203798830509186,0.9062319993972778,-0.4175693690776825
0,1651608982,215760475,-7.8004465699170344,-0.17307547278381571,126.46668984168889,0.22509765625,0.11572265625,1.0341796875,6.65283203125,-9.27734375,74.462890625,-0.029287541285157204,0.0614093579351902,0.8907329440116882,-0.4494061768054962
0,1651608982,274880060,-8.141205561382618,-1.971140300829847,121.73737123772369,0.18994140625,0.20703125,0.93994140625,1.220703125,-7.14111328125,77.880859375,-0.01956469938158989,0.07034959644079208,0.8705794811248779,-0.486579567193985
0,1651608982,316714684,-8.138064528138058,-2.950403732041616,118.82089412250659,0.2529296875,0.20458984375,0.96435546875,-0.48828125,-2.5634765625,78.79638671875,-0.013991900719702244,0.07413098961114883,0.8574507832527161,-0.5090060234069824
0,1651608982,376427141,-8.323571612221958,-4.201574219347242,114.01948970204106,0.259765625,0.18408203125,1.00634765625,1.89208984375,-1.77001953125,74.0966796875,-0.008823344483971596,0.0807378739118576,0.8345406651496887,-0.5449268817901611
0,1651608982,416046440,-8.102602185967351,-5.146696949992702,110.71083678506017,0.24609375,0.109375,0.91455078125,2.25830078125,-0.732421875,75.50048828125,-0.0032774079591035843,0.08352462947368622,0.8180077075958252,-0.5691012740135193
0,1651608982,484108862,-7.784389648951981,-5.575545744957585,106.87326084894265,0.10498046875,-0.0595703125,0.96875,-4.33349609375,6.16455078125,38.6962890625,-0.0014139243867248297,0.0833626538515091,0.7984309196472168,-0.5962859392166138
0,1651608982,514805709,-7.138259302997476,-5.228847904008677,105.9540608206315,-0.06005859375,-0.55078125,0.58447265625,2.5634765625,2.13623046875,9.3994140625,-0.0010978804202750325,0.07706332951784134,0.7943063974380493,-0.6026089191436768
0,1651608982,554866422,-6.6941271059910425,-4.453658145479018,106.37399451118223,-0.00390625,-0.05859375,1.66015625,9.09423828125,26.18408203125,-27.52685546875,-0.0039029745385050774,0.06994954496622086,0.7972669005393982,-0.5995476245880127
0,1651608982,634950152,-6.974989607303844,-2.120774377619194,110.92766114026222,-0.30615234375,0.20703125,0.8330078125,9.8876953125,26.4892578125,-85.02197265625,-0.01926402933895588,0.06057403236627579,0.821463942527771,-0.5667069554328918
0,1651608982,682068301,-6.880743242041423,-0.35299399470319087,115.67275065102099,-0.3095703125,0.154296875,1.00390625,2.13623046875,10.31494140625,-99.12109375,-0.029342370107769966,0.05243675783276558,0.844903290271759,-0.5315335988998413
0,1651608982,715955174,-6.6633985118019785,0.7590086134990751,119.40206125860463,-0.30810546875,0.1865234375,0.79541015625,-8.7890625,10.3759765625,-101.37939453125,-0.03502889722585678,0.046840816736221313,0.8621206283569336,-0.5033159255981445
0,1651608982,770405482,-6.326708178647608,2.1554580782245187,125.48792373362606,-0.3955078125,0.1005859375,1.158203125,-11.53564453125,8.7890625,-98.876953125,-0.04196247458457947,0.04044649749994278,0.8879327178001404,-0.45626622438430786
0,1651608982,835717276,-5.660445423227666,3.533073936643887,131.73656327694727,-0.29833984375,0.14794921875,1.0771484375,-0.54931640625,4.7607421875,-100.40283203125,-0.04827598109841347,0.03245227038860321,0.911683976650238,-0.40675389766693115
0,1651608982,877558044,-5.233480479813237,4.2867214919747365,136.19457310670123,-0.3037109375,0.1142578125,0.97900390625,-0.6103515625,-2.25830078125,-101.74560546875,-0.051683004945516586,0.02839295193552971,0.9268396496772766,-0.37079787254333496
0,1651608982,934622978,-4.93524283102557,5.302466671090836,141.81803177491278,-0.40380859375,0.1982421875,1.0517578125,1.708984375,-4.82177734375,-93.68896484375,-0.05773845687508583,0.025528283789753914,0.9437649250030518,-0.32453426718711853
0,1651608982,975330708,-4.932725479429597,5.800544129048853,145.58553680033515,-0.31884765625,0.14306640625,0.95849609375,-1.64794921875,-12.939453125,-74.03564453125,-0.061002250760793686,0.02609971910715103,0.9537779092788696,-0.2930961549282074
0,1651608983,30361312,-4.693494688655315,5.285965787829731,148.41714198492568,-0.05517578125,0.09716796875,1.0556640625,-5.37109375,-17.578125,-21.3623046875,-0.05546615645289421,0.02682136930525303,0.960942804813385,-0.2698020339012146
0,1651608983,75858096,-4.5565720207981855,4.450742081590246,148.65290645469616,0.04296875,0.11572265625,0.85009765625,-8.30078125,-10.80322265625,5.7373046875,-0.04808833450078964,0.027764150872826576,0.9617469310760498,-0.2682526111602783
0,1651608983,134840431,-4.524379631692622,2.6739620706691047,146.64862842389095,0.09130859375,0.091796875,1.00048828125,-5.2490234375,-16.05224609375,52.79541015625,-0.03365759924054146,0.03111189976334572,0.9572014808654785,-0.28577011823654175
0,1651608983,170699873,-4.532042677054553,1.5872259330323026,143.6256823198917,0.18798828125,0.119140625,0.939453125,-6.89697265625,-2.44140625,75.68359375,-0.02548835054039955,0.033240582793951035,0.949379026889801,-0.31132781505584717
0,1651608983,235460268,-4.524665218977294,0.0989437011320716,138.65311335882564,0.21142578125,0.03076171875,1.080078125,-5.55419921875,-9.27734375,82.763671875,-0.014743474312126637,0.03662840276956558,0.9348902702331543,-0.3527340292930603
0,1651608983,276002907,-4.195439428812101,-0.7068187645250374,134.97781588719846,0.29443359375,0.18115234375,1.10986328125,17.02880859375,-25.87890625,80.26123046875,-0.008319680579006672,0.0361742302775383,0.9230822920799255,-0.38280704617500305
0,1651608983,330213053,-4.041074592248874,-1.4306724477269097,129.58286802785884,0.22314453125,0.14697265625,1.0048828125,1.89208984375,0.30517578125,88.80615234375,-0.003726980183273554,0.03721149265766144,0.9039429426193237,-0.4260149598121643
0,1651608983,375515850,-4.148253493817891,-1.9776059286529104,126.24539171258048,0.26904296875,0.2880859375,1.0244140625,6.34765625,-4.33349609375,84.28955078125,-0.0009767274605110288,0.040074460208415985,0.8909772038459778,-0.4522751569747925
0,1651608983,432776467,-3.3415752825540044,-2.9426563765321174,120.32012064532438,0.16357421875,-0.35693359375,0.87353515625,-31.1279296875,13.5498046875,96.5576171875,0.007760053500533104,0.038053400814533234,0.8663917183876038,-0.4978526830673218
0,1651608983,474693556,-2.5800121783053447,-3.7176006751384785,116.78298424022822,-0.04736328125,-0.6005859375,0.77734375,0.48828125,-32.71484375,94.54345703125,0.01582440547645092,0.036159105598926544,0.8506025671958923,-0.5243257284164429
0,1651608983,538198382,-1.9040975118145291,-3.6081046318935344,111.06216122539811,0.29931640625,0.03759765625,0.48876953125,6.9580078125,-14.2822265625,40.4052734375,0.01655167154967785,0.031506434082984924,0.8236148953437805,-0.5660317540168762
0,1651608983,594667917,-1.923662375248619,-2.8449511607853197,110.48810431622604,-0.18212890625,0.08935546875,1.021484375,-1.708984375,17.822265625,-20.263671875,0.01082585658878088,0.027937106788158417,0.8209813237190247,-0.5701684355735779
0,1651608983,633364324,-2.1929948769122047,-1.840217100384927,111.85852713167574,-0.2763671875,0.13623046875,0.87939453125,-5.859375,25.146484375,-52.490234375,0.0025802566669881344,0.024843895807862282,0.8279159665107727,-0.5602957010269165
0,1651608983,678822836,-2.8258921582366336,-0.3357547306402109,115.40899606603178,-0.41748046875,0.3427734375,1.123046875,13.18359375,1.8310546875,-84.47265625,-0.010698406025767326,0.02240844815969467,0.8450045585632324,-0.5341823697090149
0,1651608983,735732440,-3.4208733519310295,0.8894364651466106,120.70414120121917,-0.361328125,0.2529296875,1.09130859375,3.173828125,-1.64794921875,-97.83935546875,-0.021507153287529945,0.02210206538438797,0.8687826991081238,-0.4942324161529541
0,1651608983,795062716,-3.7100003821395466,1.955657756085309,126.82435952776578,-0.37060546875,0.0859375,1.12158203125,12.0849609375,-5.55419921875,-90.14892578125,-0.029738614335656166,0.021308833733201027,0.8938978314399719,-0.4467753767967224
0,1651608983,836643577,-4.213836970228353,2.1308444243333198,129.79805996784924,-0.3193359375,0.23828125,1.0654296875,-0.3662109375,-14.2822265625,-67.138671875,-0.032419972121715546,0.025404110550880432,0.9050830006599426,-0.423235684633255
0,1651608983,897189036,-4.567192111183909,1.9044230130171624,132.05823786609818,0.044921875,0.2294921875,1.07763671875,7.99560546875,-11.90185546875,-11.65771484375,-0.03135906904935837,0.029657822102308273,0.9131693243980408,-0.4052884876728058
0,1651608983,930258363,-5.0355501354027306,1.303478850733934,131.80393626292025,0.01123046875,0.19873046875,0.95166015625,0.91552734375,-7.62939453125,18.9208984375,-0.02830854058265686,0.035458385944366455,0.9121119976043701,-0.4074224531650543
0,1651608983,991460727,-4.210844493598242,-0.07923781830400467,129.20696173669802,-0.06787109375,-0.33837890625,0.87451171875,11.04736328125,-30.6396484375,56.640625,-0.015132086351513863,0.03348429873585701,0.9027404189109802,-0.4286136031150818
0,1651608984,40069391,-4.077972981692575,-1.0772178421415661,125.99136331696937,0.41845703125,-0.0205078125,0.87255859375,-9.1552734375,-11.1083984375,87.70751953125,-0.0077842832542955875,0.03596455976366997,0.8902170062065125,-0.4540482461452484
0,1651608984,96551950,-3.9161073167602054,-2.282607812596418,120.20488169364792,0.30615234375,0.18017578125,0.9287109375,-3.47900390625,-1.3427734375,94.90966796875,0.0002297514001838863,0.039537277072668076,0.8659006953239441,-0.4986509084701538
0,1651608984,155937138,-3.115213208506262,-3.418978828209997,114.7165241672192,0.26611328125,-0.3818359375,0.65087890625,-3.5400390625,-12.63427734375,99.12109375,0.010455843061208725,0.038963548839092255,0.840936541557312,-0.5396277904510498
0,1651608984,195814457,-2.1199489919466803,-3.2275591481823933,110.74428422142572,0.13427734375,-0.568359375,0.62744140625,-4.39453125,5.92041015625,74.0966796875,0.012661687098443508,0.0312162134796381,0.8220970034599304,-0.568350076675415
0,1651608984,250393375,-1.7437101559506434,-3.019212765287617,107.41434843499106,-0.22607421875,-0.36962890625,0.41552734375,-3.173828125,2.9296875,21.30126953125,0.01222781091928482,0.027851859107613564,0.8053921461105347,-0.5919615030288696
0,1651608984,317016930,-1.8457905347476573,-1.5186017417807152,108.45376662288359,-0.22802734375,0.07861328125,0.8564453125,8.72802734375,27.099609375,-49.37744140625,0.0013355097034946084,0.020812727510929108,0.8110369443893433,-0.5846230983734131
0,1651608984,354810542,-2.371279676279051,-0.07490326953294484,111.46174095222219,-0.4873046875,0.15283203125,1.00048828125,11.5966796875,16.4794921875,-83.8623046875,-0.01111111231148243,0.01746775209903717,0.8262171149253845,-0.5629714131355286
0,1651608984,396708239,-2.9617516644607687,1.0530709889914556,115.63015759135679,-0.5537109375,0.2255859375,1.00390625,17.4560546875,15.0146484375,-101.74560546875,-0.021539844572544098,0.016977844759821892,0.8461414575576782,-0.5322521924972534
0,1651608984,455113382,-3.647568184257399,2.4428150222209446,121.87926158754154,-0.70166015625,0.23779296875,1.26611328125,-1.220703125,23.4375,-115.41748046875,-0.03407822176814079,0.017464173957705498,0.8737966418266296,-0.4847816526889801
0,1651608984,515015090,-4.025425775086728,3.6626377160005625,128.9414039817679,-0.4990234375,0.3330078125,0.83837890625,8.97216796875,-1.77001953125,-110.41259765625,-0.0439477413892746,0.01791185699403286,0.9018314480781555,-0.4294739067554474
0,1651608984,555592130,-3.752687783791657,4.455444239946976,133.86407158075784,-0.49951171875,0.15869140625,1.1484375,10.19287109375,11.5966796875,-110.65673828125,-0.04856355860829353,0.014879198744893074,0.9193512201309204,-0.39014580845832825
0,1651608984,614802212,-3.7738447216325945,5.213738671790962,140.541291834119,-0.4306640625,0.0908203125,1.033203125,7.080078125,1.0986328125,-98.7548828125,-0.05389353632926941,0.015616456978023052,0.9403192400932312,-0.33563563227653503
0,1651608984,655635831,-3.8890170789646423,5.234374807707686,143.7600184804875,-0.298828125,0.224609375,0.93017578125,1.89208984375,-11.5966796875,-74.40185546875,-0.0539151094853878,0.01802188716828823,0.9493511319160461,-0.30903223156929016
0,1651608984,711535502,-3.8742062406362927,4.770952022051022,146.3735630456362,0.001953125,0.2607421875,1.037109375,6.34765625,-16.4794921875,-15.07568359375,-0.04958932846784592,0.02029687911272049,0.956283688545227,-0.2874901592731476
0,1651608984,750942703,-4.333051092001756,3.952026854718479,146.49621958275128,0.02978515625,0.19677734375,0.9111328125,-13.5498046875,-16.11328125,9.6435546875,-0.04388387128710747,0.026246827095746994,0.9566841125488281,-0.28660234808921814
0,1651608984,814947311,-4.698888830552333,2.4614488454937975,144.39951543209745,0.0712890625,0.25732421875,0.9091796875,5.79833984375,-19.287109375,52.42919921875,-0.03296209126710892,0.032462120056152344,0.9513775110244751,-0.30453360080718994
0,1651608984,858512742,-5.004093272293414,1.2659039523972841,141.32729634342573,0.359375,0.21337890625,0.9296875,-4.8828125,-7.9345703125,78.67431640625,-0.024867679923772812,0.03753574937582016,0.9427936673164368,-0.330322265625
0,1651608984,917414116,-5.149303094047885,-0.12031167447608543,136.41215561290113,0.2939453125,0.2607421875,0.99755859375,3.2958984375,-7.87353515625,82.33642578125,-0.015703903511166573,0.04209969565272331,0.9275698661804199,-0.37093818187713623
0,1651608984,955831896,-5.450332155771973,-0.8229949462216652,133.3991406039551,0.3037109375,0.23388671875,0.9775390625,1.3427734375,-2.8076171875,77.880859375,-0.01221739687025547,0.046504054218530655,0.9172460436820984,-0.3954085111618042
0,1651608984,994728786,-5.466334435223666,-1.5345725383292033,130.06864474200847,0.17724609375,0.07275390625,1.0361328125,2.9296875,-4.2724609375,77.57568359375,-0.007998528890311718,0.04887087643146515,0.9051788449287415,-0.4221362769603729
0,1651608985,55146116,-5.115657155309579,-2.211144397084221,125.25474107536184,0.02587890625,-0.26318359375,1.033203125,5.67626953125,-3.47900390625,70.3125,-0.003397637978196144,0.04848596826195717,0.8865893483161926,-0.45999690890312195
0,1651608985,115089264,-5.202401411542387,-1.9973981093203148,122.17260455201524,-0.08251953125,0.18017578125,1.04052734375,-3.23486328125,7.2021484375,25.0244140625,-0.006698057521134615,0.048139169812202454,0.8739317655563354,-0.48361244797706604
0,1651608985,155171193,-5.515662488296321,-1.857260770241636,121.64551885376535,0.046875,0.29296875,0.84619140625,1.220703125,-0.244140625,6.40869140625,-0.009319272823631763,0.04989609122276306,0.8716098666191101,-0.4875650405883789
0,1651608985,210693260,-5.798867317607614,-1.6016309087135654,121.3711364944276,0.09130859375,0.16015625,1.0029296875,-7.01904296875,4.08935546875,3.11279296875,-0.012592081911861897,0.05093551427125931,0.8703985810279846,-0.4895440340042114
0,1651608985,254793161,-6.026237058001346,-1.1673842365919622,121.62823847516522,0.01318359375,0.21630859375,0.95947265625,-0.54931640625,12.3291015625,-16.54052734375,-0.016749978065490723,0.050849590450525284,0.8715289235115051,-0.4874126613140106
0,1651608985,298732133,-6.18536637839748,-0.06520935013063234,122.99102513912284,-0.06884765625,0.115234375,0.912109375,-3.662109375,12.39013671875,-42.54150390625,-0.025247693061828613,0.04768247529864311,0.8774850964546204,-0.47655943036079407
0,1651608985,355801899,-4.537972135027771,0.989240096433336,127.06724105465143,-0.3271484375,-0.4912109375,1.60595703125,-2.62451171875,13.5498046875,-77.08740234375,-0.025365782901644707,0.03159600496292114,0.8946132063865662,-0.44500070810317993
0,1651608985,390480111,-4.90739230779802,1.634569816151069,129.91142744769311,-0.25390625,0.0576171875,0.6552734375,-5.126953125,13.00048828125,-86.36474609375,-0.031032180413603783,0.03275028616189957,0.9053165912628174,-0.42233434319496155
0,1651608985,456403912,-5.0631517836123985,2.6189299558658425,135.23827832100773,-0.28515625,0.14208984375,0.9814453125,7.6904296875,-12.02392578125,-76.5380859375,-0.03792428970336914,0.03213925659656525,0.9239138960838318,-0.3793572783470154
0,1651608985,515075075,-4.623498910041024,2.6567233135342274,138.95937904120902,-0.2255859375,-0.6181640625,0.72607421875,-8.23974609375,-24.658203125,-36.7431640625,-0.03582938015460968,0.029647430405020714,0.9358620643615723,-0.34928423166275024
0,1651608985,550128747,-5.022691450516535,2.1140645705333028,140.02523006118952,0.01611328125,0.06982421875,0.78369140625,7.50732421875,-12.0849609375,-14.7705078125,-0.032294612377882004,0.034871410578489304,0.9389818906784058,-0.3406672477722168
0,1651608985,594731952,-4.7577744527079515,1.8659088569479299,140.59664368715278,-0.1357421875,-0.73291015625,0.83740234375,-19.47021484375,0.06103515625,-9.521484375,-0.029307300224900246,0.03358804062008858,0.9407525062561035,-0.3361513912677765
0,1651608985,655952076,-4.559089372394158,1.5879618859153715,140.54521236270259,-0.1044921875,0.16259765625,0.9296875,10.7421875,-13.73291015625,19.34814453125,-0.0264581311494112,0.03276332840323448,0.9406600594520569,-0.3367270827293396
0,1651608985,692017889,-4.275230125583013,0.7779634556629182,139.24292751441294,0.33740234375,-0.20263671875,1.166015625,-11.04736328125,-2.99072265625,44.5556640625,-0.019347887486219406,0.03260204941034317,0.936826765537262,-0.3477332293987274
0,1651608985,755062165,-5.082657096334662,-0.9393447107727466,135.1128077459546,0.10986328125,0.1337890625,1.03466796875,3.96728515625,-13.7939453125,80.26123046875,-0.009358389303088188,0.04410654678940773,0.9231770038604736,-0.3817214071750641
0,1651608985,794853211,-5.765384449635743,-1.925918898995662,131.480881975557,0.38818359375,0.33447265625,0.94677734375,13.671875,0.18310546875,85.38818359375,-0.005357743240892887,0.05274009704589844,0.9100639820098877,-0.41106367111206055
0,1651608985,850683793,-6.379645986696615,-2.9725792218425315,126.36623141937635,0.17822265625,0.1611328125,0.94384765625,11.5966796875,-7.62939453125,81.35986328125,-0.0019825506024062634,0.061326514929533005,0.8901193141937256,-0.4515782296657562
0,1651608985,895323638,-6.38800613824071,-3.717711665712491,123.22480885403404,0.17724609375,-0.2041015625,0.515625,3.23486328125,-0.67138671875,84.716796875,0.002016774844378233,0.06438922882080078,0.8770634531974792,-0.4760354459285736
0,1651608985,932042836,-6.431804299406594,-4.464554431639304,119.51086617208293,0.12548828125,0.14794921875,0.7822265625,30.33447265625,-23.4375,83.49609375,0.005360912531614304,0.06801415234804153,0.8607677221298218,-0.5044049024581909
0,1651608985,995039367,-5.866553638508795,-5.08786426180315,114.33160885654313,0.005859375,0.15234375,1.12109375,15.80810546875,-1.708984375,67.9931640625,0.009526517242193222,0.06699003279209137,0.8370837569236755,-0.542874276638031
0,1651608986,34771916,-5.905387532808549,-4.785653150465828,112.441149098067,-0.00830078125,0.1015625,0.96875,2.8076171875,18.9208984375,33.203125,0.006041102111339569,0.06596051901578903,0.8281611800193787,-0.5565625429153442
0,1651608986,95551491,-6.389291921351965,-4.247094441957615,111.52212665467428,0.09423828125,0.15087890625,1.033203125,-5.67626953125,5.2490234375,9.21630859375,-0.0007484658854082227,0.06685486435890198,0.8236849904060364,-0.5630922317504883
0,1651608986,137723687,-6.695761655636791,-3.9275457491858607,111.17774168653307,0.0771484375,0.240234375,0.91748046875,-3.90625,-0.54931640625,7.38525390625,-0.004760442301630974,0.06748301535844803,0.8219811916351318,-0.5654824376106262
0,1651608986,194718509,-6.759265766331808,-3.6822510310890775,110.97595740788337,0.02099609375,0.22216796875,0.9814453125,-7.50732421875,9.6435546875,-4.5166015625,-0.006955655291676521,0.06672289967536926,0.821076512336731,-0.5668624639511108
0,1651608986,250405729,-5.815951328269109,-2.128107866353672,112.2990675029524,-0.2451171875,0.23779296875,1.037109375,0.79345703125,13.7939453125,-42.90771484375,-0.012851648963987827,0.05245611071586609,0.8287569284439087,-0.5569964647293091
0,1651608986,290958385,-5.658371180154099,-0.8326980303504617,114.88831708522336,-0.189453125,0.1005859375,1.0625,-6.103515625,10.986328125,-71.533203125,-0.020442867651581764,0.045507147908210754,0.8416248559951782,-0.5377535820007324
0,1651608986,342525424,-5.695934232381407,0.010130688822146317,117.76918159410802,-0.22021484375,0.21630859375,1.015625,-1.03759765625,7.080078125,-78.43017578125,-0.025751475244760513,0.04249189421534538,0.8550730347633362,-0.5161216259002686
0,1651608986,401609328,-5.7286888314330255,1.27956027531249,122.64478918971656,-0.18115234375,0.09521484375,0.99169921875,2.3193359375,0.18310546875,-75.50048828125,-0.03376292437314987,0.038487207144498825,0.8764508366584778,-0.4787617623806
0,1651608986,452228067,-5.491106250682833,2.184488303187777,127.26018023832596,-0.34619140625,-0.03515625,1.01171875,-0.8544921875,-3.35693359375,-63.96484375,-0.038330886512994766,0.034451521933078766,0.8951596617698669,-0.44275617599487305
0,1651608986,496167806,-5.360625731873494,2.1636888830612073,129.2255671719971,-0.0322265625,0.091796875,1.076171875,1.220703125,-12.5732421875,-28.9306640625,-0.03708407282829285,0.03415391221642494,0.9026603102684021,-0.42739057540893555
0,1651608986,535977220,-5.906415049391812,1.8705333219028517,129.81538132758442,0.06591796875,0.23974609375,0.94140625,4.45556640625,2.01416015625,-9.521484375,-0.036608416587114334,0.039739035069942474,0.9046591520309448,-0.42269667983055115
0,1651608986,592261120,-5.903802075147459,2.0026065554492725,130.2360799993222,-0.0048828125,0.119140625,1.0205078125,-1.15966796875,1.77001953125,-6.65283203125,-0.037496328353881836,0.03936736285686493,0.9062131643295288,-0.41931140422821045
0,1651608986,634803466,-4.878576593463382,2.183070612048176,130.53555647367054,-0.0546875,-0.0009765625,1.32275390625,6.53076171875,-4.8828125,-8.23974609375,-0.03508992865681648,0.03068700060248375,0.9076245427131653,-0.4171866178512573
0,1651608986,696669935,-4.2014674976414605,2.2470769550906002,130.98524246824584,-0.04345703125,0.27783203125,1.02880859375,20.20263671875,-4.45556640625,-5.79833984375,-0.03303223103284836,0.02521941252052784,0.9094197154045105,-0.4137980341911316
0,1651608986,740167525,-4.004845988230657,2.2568844664085037,131.2782166025044,-0.076171875,0.0693359375,1.06396484375,-8.11767578125,-1.03759765625,-6.77490234375,-0.03233945742249489,0.023706186562776566,0.9105163812637329,-0.41152405738830566
0,1651608986,796798373,-4.086570055423506,2.2108970161702195,131.59506907810126,0.0068359375,0.1123046875,1.021484375,-0.8544921875,-1.03759765625,-5.37109375,-0.03219984471797943,0.02461032010614872,0.9116348624229431,-0.4089979827404022
0,1651608986,835575230,-4.673977423102004,2.2119768263893165,131.87029838089612,-0.0888671875,0.193359375,0.7021484375,1.8310546875,-5.859375,-7.080078125,-0.03423413634300232,0.0293615460395813,0.9124760031700134,-0.40663671493530273
0,1651608986,895038915,-4.6157603057114,2.381013122733142,132.26949561712667,-0.03759765625,0.12109375,0.93310546875,4.08935546875,1.5869140625,-5.79833984375,-0.03527381643652916,0.02841903455555439,0.9138989448547363,-0.4034065008163452
0,1651608986,940432018,-4.866432090232276,2.573604820533638,132.50959042683095,-0.05517578125,0.08544921875,1.04296875,12.20703125,-7.9345703125,-4.5166015625,-0.0376284159719944,0.02981642633676529,0.9146731495857239,-0.40133294463157654
0,1651608986,995582815,-5.975249268960377,2.5298241617275026,132.76503950178943,-0.087890625,0.20556640625,1.01171875,8.30078125,3.0517578125,-4.638671875,-0.04107437655329704,0.03891116380691528,0.9152331948280334,-0.39893245697021484
0,1651608987,36436979,-6.036585648367561,2.3928575245275905,132.97484925271388,-0.0810546875,-0.8310546875,0.27978515625,-27.34375,-12.6953125,-4.08935546875,-0.04012198746204376,0.03995390236377716,0.915939450263977,-0.39730188250541687
0,1651608987,98138037,-5.5470591603635775,2.75721930188721,133.62129933689891,-0.04150390625,-0.1572265625,1.30078125,23.92578125,12.6953125,-22.27783203125,-0.0411376953125,0.035003453493118286,0.9183244705200195,-0.3921258747577667
0,1651608987,134846259,-6.007521912788688,3.246485388929087,134.87208455884667,-0.03076171875,0.10595703125,1.095703125,5.9814453125,2.86865234375,-34.72900390625,-0.046221956610679626,0.037516236305236816,0.9223825931549072,-0.38166293501853943
0,1651608987,174773530,-6.5292894549960705,3.528824918649904,136.28729975487332,-0.07470703125,0.3955078125,0.68115234375,12.6953125,-5.06591796875,-38.818359375,-0.04972097650170326,0.04138559848070145,0.9268273711204529,-0.3698731064796448
0,1651608987,236164377,-6.7110484727729265,4.105683059155317,138.3534046580455,-0.1220703125,0.19677734375,0.8828125,4.69970703125,0.732421875,-27.83203125,-0.054217804223299026,0.041961025446653366,0.9332252740859985,-0.35269010066986084
0,1651608987,270097490,-6.841094847683146,3.92118556240811,139.1578643384896,0.0068359375,0.1708984375,0.96337890625,-0.79345703125,2.197265625,-13.73291015625,-0.05281059816479683,0.04396602511405945,0.9356488585472107,-0.3461782932281494
0,1651608987,331372911,-7.288351429348037,3.906578775981214,139.72826709645568,-0.0654296875,0.1552734375,1.171875,-6.40869140625,-2.01416015625,-7.14111328125,-0.05380437895655632,0.047930605709552765,0.9371819496154785,-0.3413178324699402
0,1651608987,393129235,-7.677876263940218,3.00460170999249,139.33730706836417,-0.041015625,0.21826171875,1.0458984375,-1.3427734375,-7.9345703125,22.27783203125,-0.04778296872973442,0.053670573979616165,0.9358832836151123,-0.3449041247367859
0,1651608987,438860774,-7.855085521956198,1.8811448745521129,137.6509197019097,0.14013671875,0.25634765625,0.984375,-5.4931640625,-14.58740234375,51.45263671875,-0.04000882804393768,0.0579463355243206,0.9305752515792847,-0.35926496982574463
0,1651608987,474753849,-7.820633194009008,0.9644174814422172,135.432774787813,0.15380859375,0.12255859375,0.8623046875,-6.103515625,-3.72314453125,63.04931640625,-0.033627402037382126,0.05991591885685921,0.9233490228652954,-0.3777643144130707
0,1651608987,535251788,-6.995909622957948,-0.25204155761458097,131.2675751677775,0.24658203125,0.1787109375,0.6240234375,13.00048828125,-4.39453125,69.7021484375,-0.023172050714492798,0.0564839169383049,0.9091724753379822,-0.41192010045051575
0,1651608987,570850011,-6.835774130319706,-0.7900749818869376,128.12355713055058,0.1904296875,0.41162109375,1.06884765625,-2.8076171875,9.033203125,62.07275390625,-0.01988730952143669,0.05662154778838158,0.8974655270576477,-0.4369831383228302
0,1651608987,635039198,-7.224343165314908,-0.7187137524080262,125.61832570525995,-0.0712890625,0.39453125,1.03515625,3.2958984375,5.859375,17.7001953125,-0.023221073672175407,0.058899279683828354,0.8875243663787842,-0.456390380859375
0,1651608987,698225652,-7.906772978500269,-0.4475190903806865,125.17407654126399,-0.013671875,0.4892578125,1.01806640625,0.30517578125,1.708984375,4.39453125,-0.028283467516303062,0.06299640983343124,0.8854681849479675,-0.4595406651496887
0,1651608987,732523410,-8.494189737688876,-0.41523550757753364,125.09175910138698,0.017578125,0.65576171875,0.9931640625,-2.44140625,5.126953125,0.6103515625,-0.030936621129512787,0.06738314777612686,0.8848139643669128,-0.4600072503089905
0,1651608987,794991519,-9.080490614721832,-0.29186985808837984,125.13532204791333,-0.0380859375,0.51708984375,0.9580078125,0.06103515625,0.30517578125,-0.06103515625,-0.03421509638428688,0.07142779976129532,0.884674608707428,-0.45943260192871094
0,1651608987,856421918,-9.4306709983738,-0.24799218925168903,125.14291721827038,-0.00537109375,0.177734375,1.00537109375,-2.3193359375,1.89208984375,-0.79345703125,-0.03595275059342384,0.07395758479833603,0.884497880935669,-0.45923978090286255
0,1651608987,911098469,-9.095230162950719,0.35464196460344155,125.35958447912152,-0.025390625,0.13232421875,1.06787109375,-3.7841796875,6.8359375,-11.5966796875,-0.03913083299994469,0.06902717053890228,0.8857667446136475,-0.45729783177375793
0,1651608987,951025324,-8.724361136302782,0.8461414968234864,125.8553059487027,-0.0244140625,0.12109375,0.98681640625,-1.40380859375,6.7138671875,-10.25390625,-0.0411713533103466,0.06437444686889648,0.8880845308303833,-0.4532844126224518
0,1651608988,15534676,-7.951263123206441,0.7591444702305349,126.0270715459502,0.0283203125,0.06591796875,0.96044921875,1.03759765625,1.220703125,3.90625,-0.037350062280893326,0.05878257006406784,0.889158308506012,-0.4522688686847687
0,1651608988,51083458,-7.533670479993738,0.6810624946908895,125.92139485911176,-0.03564453125,0.0498046875,1.02294921875,0.0,-5.2490234375,5.18798828125,-0.03514740988612175,0.05581832304596901,0.888932466506958,-0.4532637596130371
0,1651608988,117158654,-6.8601587594302975,0.40161712422873314,125.3854435753192,0.013671875,0.0751953125,1.0234375,-1.15966796875,-0.3662109375,6.7138671875,-0.030556393787264824,0.05155755952000618,0.887057900428772,-0.45775148272514343
0,1651608988,155991447,-6.362654183588916,0.6343062212841557,125.41856999279376,-0.037109375,0.0498046875,1.01025390625,-0.9765625,-1.0986328125,-2.5634765625,-0.0303565114736557,0.046784088015556335,0.8874492645263672,-0.4575190246105194
0,1651608988,216309864,-5.650507924872121,0.6091278494868144,125.42490840834353,-0.0361328125,0.0224609375,1.0068359375,1.953125,0.244140625,-0.91552734375,-0.02731533721089363,0.0413702167570591,0.8877443075180054,-0.4576599597930908
0,1651608988,254967998,-4.984586678910681,0.670376450290993,125.47888056316498,-0.0244140625,-0.21533203125,1.2119140625,-10.498046875,12.63427734375,0.18310546875,-0.02511286549270153,0.035977546125650406,0.8881932497024536,-0.4573706090450287
0,1651608988,314737480,-4.6296687052956615,0.7430104961939069,125.52344071731014,-0.09521484375,0.1865234375,1.34716796875,7.01904296875,3.23486328125,-3.0517578125,-0.024246258661150932,0.03294563665986061,0.8884865045547485,-0.45707616209983826
0,1651608988,355013428,-4.969128253271649,0.7372486446596194,125.57769974007671,-0.083984375,0.1064453125,0.97607421875,-6.34765625,7.01904296875,-1.953125,-0.025538653135299683,0.03561259061098099,0.8886004686355591,-0.456583708524704
0,1651608988,414826302,-5.5756362449640875,0.6549966785491226,125.64631582047866,-0.01123046875,0.33154296875,0.93212890625,3.23486328125,-1.708984375,-0.18310546875,-0.02729305624961853,0.04065960273146629,0.8886606693267822,-0.45594310760498047
0,1651608988,452563401,-5.884711696417273,0.6244090637333957,125.6567386891521,-0.05029296875,0.29833984375,1.07080078125,4.08935546875,-2.01416015625,-0.54931640625,-0.028281690552830696,0.04318073391914368,0.888584315776825,-0.45579999685287476
0,1651608988,516396871,-6.208343134765403,0.6202424348962764,125.66826804847109,0.00048828125,0.06103515625,1.01220703125,-1.89208984375,-0.67138671875,-0.30517578125,-0.02953195758163929,0.045709673315286636,0.888503909111023,-0.45563066005706787
0,1651608988,554980285,-5.776005820681935,0.674736618941547,125.68919574808801,-0.04638671875,0.05322265625,0.953125,0.06103515625,0.1220703125,-0.1220703125,-0.028227509930729866,0.04214535653591156,0.8887618780136108,-0.45555394887924194
0,1651608988,614856456,-5.0720233455705985,0.7396807789735257,125.67080887884232,-0.0126953125,0.0439453125,1.0263671875,-2.13623046875,0.6103515625,0.244140625,-0.025937888771295547,0.03642186522483826,0.8889392018318176,-0.45583754777908325
0,1651608988,675383548,-4.367372365694247,0.7820545788931973,125.69012465381513,-0.02001953125,0.03173828125,0.98681640625,0.0,0.0,0.06103515625,-0.023457877337932587,0.03079008124768734,0.8892274498939514,-0.45582494139671326
0,1651608988,719454937,-3.9193725740702945,0.8107190152098895,125.70297906983309,-0.01416015625,-0.0126953125,1.0146484375,-1.77001953125,0.6103515625,-0.6103515625,-0.021894998848438263,0.02720170095562935,0.8893944621086121,-0.45580488443374634
0,1651608988,754949479,-3.385909186682911,0.8432396802824359,125.73367393996313,-0.02783203125,-0.0654296875,0.9931640625,-1.220703125,0.79345703125,-0.48828125,-0.020019078627228737,0.022936854511499405,0.8896356225013733,-0.45565518736839294
0,1651608988,811846027,-2.6880047261592392,0.8666467385680696,125.76856254624356,-0.01025390625,0.0244140625,1.01318359375,0.18310546875,-0.48828125,-0.3662109375,-0.017420027405023575,0.017430398613214493,0.8898983001708984,-0.4554928243160248
0,1651608988,870564391,-2.937199055385277,0.8860948484560347,125.79279605741876,-0.0205078125,0.0615234375,0.9814453125,0.42724609375,0.3662109375,-0.48828125,-0.01855742745101452,0.01929212361574173,0.889955461025238,-0.4552612006664276
0,1651608988,917785965,-3.257073035916253,0.9882360586253441,125.80890164348165,-0.0205078125,0.06396484375,1.01123046875,-0.9765625,0.06103515625,-0.54931640625,-0.020618204027414322,0.02137308567762375,0.889967143535614,-0.45505669713020325
0,1651608988,975583229,-3.606689928961696,0.8813914627996875,125.82286255014516,-0.00634765625,0.0771484375,1.013671875,0.18310546875,0.30517578125,-0.18310546875,-0.021173974499106407,0.024515502154827118,0.8899466395378113,-0.454912930727005
0,1651608989,15131871,-3.5914159184302545,0.7748151653423655,125.83889983431634,-0.00537109375,0.0625,1.02685546875,-1.52587890625,-0.18310546875,-0.244140625,-0.020282357931137085,0.024823205545544624,0.8900063037872314,-0.4548201858997345
0,1651608989,76317019,-3.0968720161506615,0.865631815146088,125.87034602525509,-0.01025390625,-0.10400390625,1.01953125,-2.197265625,0.42724609375,-0.48828125,-0.019018936902284622,0.020626414567232132,0.8902345895767212,-0.45463740825653076
0,1651608989,115830461,-2.78915321102137,0.9245824308205276,125.90232497094908,-0.021484375,0.02294921875,0.970703125,3.60107421875,-0.9765625,-0.9765625,-0.01825089566409588,0.018006756901741028,0.8904157280921936,-0.45442554354667664
0,1651608989,175396484,-2.827578361187981,0.895998729474259,125.95759486171282,-0.03662109375,0.1357421875,0.9013671875,4.5166015625,-0.91552734375,-1.03759765625,-0.018172327429056168,0.018427541479468346,0.8906276822090149,-0.45399612188339233
0,1651608989,215094249,-3.0333775104091654,0.9277698880071021,125.98087214640422,-0.00830078125,0.07958984375,1.0400390625,-0.244140625,-0.06103515625,-0.48828125,-0.019230473786592484,0.019904961809515953,0.8906866908073425,-0.4537743330001831
0,1651608989,277837657,-3.5518614391730647,0.8131769228157422,125.99872626089464,-0.02587890625,0.072265625,0.9453125,0.8544921875,0.18310546875,-0.42724609375,-0.020389245823025703,0.02439206838607788,0.8906509280204773,-0.4535749554634094
0,1651608989,316701330,-3.7196928474586177,0.911416814308505,126.0122636958296,-0.02001953125,0.07666015625,1.0244140625,-1.15966796875,-0.30517578125,-0.54931640625,-0.021813882514834404,0.025309884920716286,0.8906747102737427,-0.45341166853904724
0,1651608989,374837543,-3.3976820849344858,0.9464517360475564,126.0434913207149,-0.04541015625,-0.005859375,0.93505859375,3.35693359375,-0.732421875,-0.48828125,-0.02080576866865158,0.022673821076750755,0.8908677697181702,-0.45321932435035706
0,1651608989,436333799,-3.152767296110284,0.8839463804360954,126.07519705884211,-0.05322265625,-0.07275390625,0.96044921875,-2.25830078125,-2.3193359375,-0.732421875,-0.019345395267009735,0.02102254144847393,0.8910366296768188,-0.4530315399169922
0,1651608989,474791931,-3.0311066859535476,0.8907986609992049,126.100823928608,-0.10986328125,0.1884765625,0.9150390625,10.31494140625,0.3662109375,-0.8544921875,-0.01891319267451763,0.020053641870617867,0.8911600708961487,-0.45285093784332275
0,1651608989,515217001,-2.92423770421812,0.8548213865981032,126.13449676121616,0.01171875,0.01513671875,1.12548828125,-1.0986328125,0.8544921875,-1.03759765625,-0.018205422908067703,0.019370174035429955,0.891309916973114,-0.45261478424072266
0,1651608989,578583233,-2.3947815034394186,0.8603721425983551,126.19822242617238,-0.01171875,-0.18994140625,0.93212890625,3.35693359375,-1.52587890625,-0.8544921875,-0.016148684546351433,0.015238837338984013,0.8916416764259338,-0.4521971642971039
0,1651608989,609980890,-2.3667580910485024,0.8238385813058676,126.25461246796,-0.01416015625,0.03125,1.1435546875,-4.2724609375,1.0986328125,-1.52587890625,-0.015746407210826874,0.015172790735960007,0.89186692237854,-0.45176923274993896
0,1651608989,670093544,-2.7078210259321502,0.8786582131929188,126.32616552970505,-0.0478515625,0.099609375,1.0087890625,4.39453125,0.54931640625,-1.46484375,-0.017506515607237816,0.017621904611587524,0.8921015858650208,-0.45115166902542114
0,1651608989,715117201,-2.9745531465126653,0.8631794570689362,126.37588930686275,0.05224609375,0.0576171875,1.01904296875,1.5869140625,0.30517578125,-0.91552734375,-0.01842755451798439,0.019767360761761665,0.8922531604766846,-0.450726181268692
0,1651608989,770881543,-3.5012047008634304,0.8982394584088462,126.44303006640398,-0.06201171875,0.1025390625,1.03466796875,0.67138671875,-0.18310546875,-0.8544921875,-0.020757831633090973,0.023742008954286575,0.8924189209938049,-0.4501045346260071
0,1651608989,817205249,-3.880744439219287,0.9493318347214804,126.47875195576314,-0.03271484375,0.0810546875,1.02197265625,-0.67138671875,0.30517578125,-1.46484375,-0.022638004273176193,0.026503853499889374,0.8924791812896729,-0.4497399926185608
0,1651608989,875105874,-4.281667578875751,0.949907278159054,126.51657754338667,0.02294921875,0.08251953125,1.005859375,0.9765625,0.3662109375,-0.3662109375,-0.024206070229411125,0.029631946235895157,0.8925294280052185,-0.44936317205429077
0,1651608989,936519697,-4.399412783090777,1.0509653697363874,126.56809083010691,-0.09814453125,0.1162109375,0.95361328125,2.5634765625,-0.9765625,-0.8544921875,-0.025441065430641174,0.030163682997226715,0.8927087187767029,-0.4489031136035919
0,1651608989,975337130,-4.120163060195744,1.1300042120900693,126.61153083322819,-0.01220703125,-0.08837890625,1.099609375,-4.638671875,0.3662109375,-0.3662109375,-0.024952135980129242,0.02768751233816147,0.8929550051689148,-0.44860029220581055
0,1651608990,35294326,-4.1735764201657135,0.989321631816553,126.67412268678218,-0.015625,0.091796875,0.88720703125,6.40869140625,0.9765625,-1.220703125,-0.024049699306488037,0.028668370097875595,0.8931769728660583,-0.44814571738243103
0,1651608990,76322700,-3.1058660946270993,1.0258335819636197,126.74083997459486,-0.05810546875,-0.67431640625,1.5185546875,-27.2216796875,7.62939453125,-2.25830078125,-0.02014593593776226,0.020213782787322998,0.8936675786972046,-0.4478212893009186
0,1651608990,135150825,-2.6259925849110473,0.9072215840542361,126.82302081068846,-0.00927734375,-0.568359375,1.27880859375,6.2255859375,5.7373046875,-2.50244140625,-0.017333360388875008,0.016947640106081963,0.8940625786781311,-0.4472857117652893
0,1651608990,174984304,-2.4224593509470145,0.7299570441946606,126.88973809850114,-0.02490234375,-0.46484375,0.6953125,-2.0751953125,-15.19775390625,0.48828125,-0.015146654099225998,0.01606084406375885,0.8943468332290649,-0.4468294084072113
0,1651608990,215064121,-2.1791981082321903,0.5245490300251647,126.99956754035495,-0.10595703125,-0.451171875,0.35791015625,4.5166015625,-22.5830078125,-1.15966796875,-0.012580695562064648,0.01497567817568779,0.8948003649711609,-0.44603797793388367
0,1651608990,274968836,-2.2146414539392674,0.6450300985287517,127.3375662816222,-0.0546875,0.03857421875,1.021484375,0.79345703125,6.77490234375,-5.615234375,-0.013615685515105724,0.014823531731963158,0.8961116075515747,-0.44337227940559387
0,1651608990,335164595,-1.7337100119538043,0.9349429740177907,127.61944818866863,-0.03125,-0.09033203125,1.1181640625,-5.79833984375,-1.953125,-3.96728515625,-0.013997318223118782,0.009974694810807705,0.8972551822662354,-0.441177636384964
0,1651608990,376715280,-1.109990690604874,0.9108778696943086,127.81688163681702,-0.0341796875,-0.43212890625,0.80029296875,-3.96728515625,0.3662109375,-4.39453125,-0.011398429982364178,0.005203173961490393,0.8980557918548584,-0.43970316648483276
0,1651608990,433312816,-0.023130632392393217,0.8437155523685154,128.10424135557778,-0.0869140625,-0.67431640625,0.8095703125,-6.103515625,-6.53076171875,-4.150390625,-0.006708839908242226,-0.003040091833099723,0.8991687297821045,-0.43754011392593384
0,1651608990,479894094,-0.42949315394396503,0.6017014061466007,128.37679322421798,-0.044921875,-0.17578125,1.001953125,-8.056640625,9.033203125,-5.7373046875,-0.006358826532959938,0.001087784068658948,0.9002204537391663,-0.435386598110199
0,1651608990,535193757,-1.0436811864299804,1.4516997186953229,129.3731948807178,-0.10595703125,0.0634765625,1.0947265625,-0.79345703125,21.728515625,-34.72900390625,-0.01534515991806984,0.0028162698727101088,0.9039218425750732,-0.42741307616233826
0,1651608990,592141602,-1.654664125967541,2.9089096925035536,133.02043393523456,-0.33740234375,0.16064453125,0.89599609375,9.33837890625,11.962890625,-77.880859375,-0.029029861092567444,0.0031223795376718044,0.9168861508369446,-0.3980794847011566
0,1651608990,636019805,-1.8290604132625343,3.564591631125499,136.32252987061224,-0.43505859375,0.03515625,1.19580078125,3.90625,10.92529296875,-92.8955078125,-0.0348006971180439,0.003239979734644294,0.9278519749641418,-0.3713073432445526
0,1651608990,697542717,-1.8967512164753573,4.346962479793779,141.92900868854716,-0.2109375,-0.001953125,1.10986328125,6.34765625,0.244140625,-76.5380859375,-0.04124097526073456,0.0032673801761120558,0.9447119235992432,-0.3252812325954437
0,1651608990,732532549,-2.3369511455105667,4.342565972402407,144.4117551310901,-0.07373046875,0.08447265625,1.1103515625,-0.06103515625,-17.333984375,-37.7197265625,-0.04229435324668884,0.007827079854905605,0.9515153765678406,-0.3045790493488312
0,1651608990,771737955,-2.2564595005760824,3.762750359986378,145.18807443215377,-0.072265625,0.08837890625,1.05615234375,4.08935546875,-12.87841796875,-7.75146484375,-0.037207797169685364,0.008959343656897545,0.9537033438682556,-0.29830414056777954
0,1651608990,832477337,-2.8043433382920666,2.308971062132198,143.93539041761676,0.1455078125,0.10986328125,1.07421875,9.765625,-16.17431640625,42.1142578125,-0.02672608382999897,0.01702835038304329,0.9505571126937866,-0.3089289367198944
0,1651608990,870490503,-3.2131751966771693,1.1581623072736815,141.23491120471212,0.2783203125,0.11328125,0.931640625,3.2958984375,-8.056640625,74.8291015625,-0.018834270536899567,0.02309338003396988,0.9429988861083984,-0.3314591348171234
0,1651608990,935072015,-2.6684910891439246,0.1733327121153887,136.05548313444308,0.09326171875,-0.58740234375,0.4228515625,-4.150390625,-19.775390625,93.6279296875,-0.01011456735432148,0.02102774940431118,0.9271258115768433,-0.3740231692790985
0,1651608990,980976836,-2.9023740552414976,-0.8178012276881053,131.86659641836596,0.26513671875,-0.01904296875,0.6591796875,10.7421875,-28.13720703125,99.91455078125,-0.003813250456005335,0.026032574474811554,0.912681519985199,-0.407823771238327
0,1651608991,35591947,-2.767113471230208,-1.832625345122458,125.81149711536625,0.45849609375,0.1064453125,1.01171875,5.55419921875,-13.97705078125,99.67041015625,0.0032371634151786566,0.028774304315447807,0.8897092938423157,-0.4556083381175995
0,1651608991,93385499,-2.862831528815355,-2.663342193726793,119.46689341420638,0.466796875,0.2041015625,0.98046875,10.8642578125,0.732421875,99.365234375,0.007478583604097366,0.03327925130724907,0.8628946542739868,-0.5042315125465393
0,1651608991,134686164,-2.857883056761681,-3.2270917071110703,115.78156922487763,0.27587890625,0.05078125,0.78662109375,-6.04248046875,-12.8173828125,98.876953125,0.010593699291348457,0.03607657924294472,0.8460640907287598,-0.5317535996437073
0,1651608991,195058309,-2.2071194946723796,-4.384707812694563,108.79260547741876,0.42236328125,0.1396484375,0.85986328125,6.8359375,-0.06103515625,101.6845703125,0.019893288612365723,0.0379144512116909,0.8118884563446045,-0.5822404026985168
0,1651608991,234895308,-1.9435826219629613,-4.809112715830706,104.94686746524309,0.48583984375,0.10595703125,1.1513671875,2.62451171875,-0.1220703125,101.25732421875,0.02294677123427391,0.038991160690784454,0.7918252944946289,-0.6090696454048157
0,1651608991,296046663,-1.559252146234575,-5.235291333716937,98.73233788663694,0.3154296875,-0.43115234375,1.13916015625,-16.17431640625,14.0380859375,102.84423828125,0.025803949683904648,0.04005410522222519,0.7576202154159546,-0.6509543657302856
0,1651608991,335179876,-0.5210642461662831,-5.428881092909902,93.95067271287276,-0.0400390625,-0.49853515625,1.27197265625,7.4462890625,-40.46630859375,111.02294921875,0.0315222442150116,0.035633280873298645,0.7300853133201599,-0.6816980242729187
0,1651608991,398731007,-0.3491592703710518,-5.080763426387277,88.07875225322363,0.3349609375,0.1357421875,0.69140625,8.97216796875,-9.765625,55.84716796875,0.028623241931200027,0.033978380262851715,0.6943690776824951,-0.7182462811470032
0,1651608991,437401558,-0.32900082080940546,-4.917356700023422,86.5126786689989,0.3544921875,0.06787109375,1.26123046875,4.39453125,9.21630859375,18.61572265625,0.027307843789458275,0.03320853412151337,0.6845402121543884,-0.7277061343193054
0,1651608991,496012720,-0.8496943157698038,-4.7389863098485385,85.49648995447357,0.013671875,0.10546875,1.1455078125,-0.54931640625,4.638671875,26.55029296875,0.02262197434902191,0.035388391464948654,0.6779541373252869,-0.7339034080505371
0,1651608991,531653280,-0.9213863291757848,-5.144764006457589,83.58433068500432,0.1904296875,0.01171875,1.11962890625,2.9296875,-3.41796875,51.8798828125,0.023920690640807152,0.038814105093479156,0.6654683947563171,-0.7450323104858398
0,1651608991,595166938,-0.9086995729576034,-6.591068942925659,78.91805472707833,0.322265625,0.009765625,1.00390625,-3.173828125,-5.43212890625,89.7216796875,0.03042052499949932,0.04941379278898239,0.6341033577919006,-0.7710679769515991
0,1651608991,634823870,-0.6509375718305781,-7.331652267364978,75.2224511030487,0.47412109375,0.0771484375,0.75,3.41796875,1.708984375,99.79248046875,0.03452950716018677,0.05410793796181679,0.6087540984153748,-0.7907581925392151
0,1651608991,695418450,-0.18856776922421947,-8.098341855472556,68.54727307624938,0.4833984375,0.0693359375,0.88427734375,5.2490234375,-7.4462890625,106.689453125,0.03840867802500725,0.059275511652231216,0.5616433620452881,-0.8243591785430908
0,1651608991,735640350,0.18595048609099554,-8.614419850101319,63.80421213167411,0.34765625,0.08447265625,0.79345703125,0.244140625,-2.0751953125,109.2529296875,0.04106396064162254,0.06290466338396072,0.5270797610282898,-0.8464890122413635
0,1651608991,790357062,0.8919695048333333,-9.249889551421903,56.86514974629136,0.43603515625,-0.07080078125,0.69970703125,6.89697265625,2.8076171875,107.36083984375,0.04521273076534271,0.06721063703298569,0.4751114249229431,-0.8761894106864929
0,1651608991,837124678,1.9865564646733889,-9.2928702243215,51.795271080120145,0.525390625,0.04150390625,1.236328125,21.78955078125,-22.3388671875,107.72705078125,0.050918545573949814,0.06531427055597305,0.4365270435810089,-0.8958714604377747
0,1651608991,898734023,2.7572922995339644,-9.10672537132385,46.25090600249732,0.51171875,0.05712890625,0.96630859375,1.77001953125,0.79345703125,66.71142578125,0.053226590156555176,0.06356790661811829,0.39314934611320496,-0.9157290458679199
0,1651608991,935935211,3.0738587609593617,-8.333430990288871,44.7853693877606,0.23583984375,0.08203125,0.8544921875,-9.70458984375,26.0009765625,18.98193359375,0.05240283161401749,0.056965172290802,0.38161057233810425,-0.921076774597168
0,1651608991,995372593,2.7706643158249684,-6.599970386961478,46.34924365107257,-0.1318359375,0.1015625,1.0244140625,-11.8408203125,34.0576171875,-49.8046875,0.04483532905578613,0.043405044823884964,0.39404675364494324,-0.9169694781303406
0,1651608992,34726832,2.2595665963182032,-5.613656492978964,49.67147156902887,-0.38134765625,-0.06640625,0.732421875,0.67138671875,18.73779296875,-87.34130859375,0.03843595087528229,0.036159686744213104,0.4203089475631714,-0.9058452844619751
