,s,ns,phi_r,phi_p,phi_y,ax,ay,az,wx,wy,wz,q.x,q.y,q.z,q.w
0,1651541251,830705411,-3.6988449756776234,0.9317015156480908,116.27184020350114,-0.01220703125,0.0673828125,0.99169921875,-0.06103515625,0.1220703125,-0.48828125,0.023938190191984177,-0.0231186393648386,-0.848970890045166,0.527390718460083
0,1651541251,855718149,-3.654926005540795,0.976077041242252,116.28000910974848,-0.0146484375,0.06494140625,0.9931640625,0.06103515625,0.1220703125,-0.3662109375,0.0240631103515625,-0.02259056456387043,-0.8490210175514221,0.5273271799087524
0,1651541251,876854345,-3.5304404718320237,0.9179178737378877,116.28951673307314,-0.01611328125,0.06201171875,1.00146484375,-0.30517578125,0.244140625,-0.3662109375,0.023057635873556137,-0.021938007324934006,-0.8490841388702393,0.5272981524467468
0,1651541251,895640192,-3.655433573973492,0.8632914081383009,116.29670209207998,-0.01708984375,0.06201171875,1.0068359375,-0.6103515625,0.244140625,-0.3662109375,0.023226704448461533,-0.02311716228723526,-0.8490878939628601,0.5272342562675476
0,1651541251,956391812,-3.6336636266545455,0.8738644342517748,116.31918707482767,-0.01513671875,0.06298828125,0.99169921875,0.1220703125,0.1220703125,-0.3662109375,0.023200364783406258,-0.02291172929108143,-0.84919673204422,0.527069091796875
0,1651541251,997151230,-3.5097614337895755,0.8796221236395368,116.3342134910017,-0.015625,0.0615234375,1.00830078125,-0.54931640625,0.244140625,-0.42724609375,0.022670233622193336,-0.0219699926674366,-0.8492906093597412,0.5269809365272522
0,1651541252,35801165,-3.692156086046065,0.8460188202226906,116.34768262404496,-0.013671875,0.06591796875,0.9931640625,0.06103515625,-0.06103515625,-0.30517578125,0.02325727790594101,-0.023479148745536804,-0.8493133187294006,0.5268537402153015
0,1651541252,76100605,-3.6908331637811984,0.9577079945214432,116.3605916815763,-0.0205078125,0.06201171875,1.00634765625,-0.3662109375,0.06103515625,-0.30517578125,0.024076154455542564,-0.022958142682909966,-0.8493829965591431,0.526727557182312
0,1651541252,110950374,-3.751785345047569,0.8560507139269997,116.37513998450842,-0.013671875,0.06689453125,0.99169921875,-0.244140625,0.1220703125,-0.48828125,0.023600038141012192,-0.023880597203969955,-0.849428117275238,0.5266351699829102
0,1651541252,156554636,-3.7145505687872444,0.9513362817994676,116.39177832532657,-0.01220703125,0.0654296875,0.99462890625,0.1220703125,0.1220703125,-0.244140625,0.0241316556930542,-0.023169824853539467,-0.8495209813117981,0.5264931917190552
0,1651541252,195217754,-3.6676912022127257,0.8613609725632732,116.40778828874107,-0.0146484375,0.0634765625,1.00341796875,-0.6103515625,0.0,-0.3662109375,0.02324628457427025,-0.02323943004012108,-0.8495960235595703,0.526408851146698
0,1651541252,257227564,-3.579517088565858,0.90409741283919,116.43487681898935,-0.01318359375,0.06640625,0.9970703125,0.1220703125,0.1220703125,-0.42724609375,0.023152697831392288,-0.022394681349396706,-0.8497416973114014,0.5262143611907959
0,1651541252,295460076,-3.6940207276894785,0.8759059137616682,116.44740338592715,-0.0166015625,0.06494140625,1.00732421875,-0.6103515625,0.244140625,-0.3662109375,0.023466961458325386,-0.02337588183581829,-0.8497738838195801,0.5261058211326599
0,1651541252,335726783,-3.7809327504437755,0.900031209127211,116.46330406631495,-0.015625,0.068359375,0.99072265625,0.0,0.06103515625,-0.48828125,0.02404150925576687,-0.02391286939382553,-0.8498311042785645,0.525963306427002
0,1651541252,379181919,-3.688961691948615,0.9271748077756649,116.48013365242986,-0.0166015625,0.064453125,0.99560546875,0.1220703125,0.244140625,-0.30517578125,0.023817211389541626,-0.02310960553586483,-0.8499297499656677,0.5258498787879944
0,1651541252,416431729,-3.7440736345878016,0.9047352884746457,116.49496882330712,-0.015625,0.06591796875,0.99755859375,-0.48828125,0.1220703125,-0.48828125,0.023900674656033516,-0.023624515160918236,-0.8499845266342163,0.5257346630096436
0,1651541252,457897625,-3.630435081611245,0.9304598086013236,116.5142436171449,-0.01611328125,0.064453125,0.9951171875,0.0,0.1220703125,-0.3662109375,0.023566246032714844,-0.022667426615953445,-0.850098192691803,0.525608241558075
0,1651541252,515383001,-3.561140251160527,0.8502558853856258,116.53931041139884,-0.01123046875,0.0634765625,0.99365234375,-0.3662109375,0.0,-0.42724609375,0.022648649290204048,-0.02252650260925293,-0.8502199053764343,0.5254576206207275
0,1651541252,550394768,-3.5620614729248326,0.84060173315893,116.55381773319596,-0.015625,0.0625,1.00048828125,-0.06103515625,0.1220703125,-0.30517578125,0.02257840894162655,-0.022580493241548538,-0.8502853512763977,0.5253525376319885
0,1651541252,595513262,-3.6601664681814876,0.9409702957952096,116.56914467769346,-0.0185546875,0.0625,1.0029296875,-0.54931640625,0.06103515625,-0.42724609375,0.023769618943333626,-0.022851133719086647,-0.8503448963165283,0.5251917839050293
0,1651541252,616384402,-3.686936113972883,0.8671536133096787,116.57657592351043,-0.0107421875,0.0673828125,0.99365234375,-0.18310546875,0.06103515625,-0.42724609375,0.023343199864029884,-0.023389890789985657,-0.85036700963974,0.5251513719558716
0,1651541252,670804407,-3.5629666864332705,1.0631194779210136,116.6026399253832,-0.02099609375,0.0625,1.01025390625,-0.67138671875,0.18310546875,-0.3662109375,0.024223968386650085,-0.021576598286628723,-0.8505269885063171,0.5249300003051758
0,1651541252,711143938,-3.6676933366468414,0.9967124301070357,116.61609539804813,-0.01806640625,0.06640625,1.00341796875,-0.6103515625,0.1220703125,-0.3662109375,0.02420833706855774,-0.02266121283173561,-0.8505631685256958,0.5248263478279114
0,1651541252,775493155,-3.6814241513126826,0.9628188970113168,116.63696845615168,-0.0205078125,0.0615234375,1.00439453125,-0.42724609375,0.30517578125,-0.30517578125,0.024015557020902634,-0.022922875359654427,-0.8506532311439514,0.5246779322624207
0,1651541252,831127930,-3.715966979266376,0.8727769400698618,116.6516806836239,-0.01611328125,0.0654296875,0.99169921875,-0.06103515625,0.06103515625,-0.48828125,0.023502498865127563,-0.023594945669174194,-0.850705623626709,0.5245863795280457
0,1651541252,856256559,-3.6403939243079466,0.904259523110272,116.66684370358132,-0.01904296875,0.06005859375,1.0068359375,-0.30517578125,0.18310546875,-0.18310546875,0.023387156426906586,-0.022892745211720467,-0.8507931232452393,0.5244808793067932
0,1651541252,897323397,-3.5325896335430507,0.9932153732519892,116.68747087487476,-0.01806640625,0.0615234375,1.00732421875,-0.54931640625,0.1220703125,-0.42724609375,0.023550093173980713,-0.02168908528983593,-0.8509158492088318,0.5243256092071533
0,1651541252,936302222,-3.6111521769238295,1.025518966374976,116.69828989452006,-0.01611328125,0.0625,1.00244140625,0.18310546875,0.18310546875,-0.30517578125,0.024147262796759605,-0.022126805037260056,-0.8509527444839478,0.5242201089859009
0,1651541252,976173039,-3.644669195841552,0.9121176557503717,116.71531072593173,-0.017578125,0.06103515625,1.00732421875,-0.244140625,0.18310546875,-0.3662109375,0.023455364629626274,-0.022898418828845024,-0.8510146737098694,0.5241177678108215
0,1651541253,19947626,-3.7764837359731582,0.8990702868883549,116.7278236324912,-0.017578125,0.06689453125,0.990234375,-0.244140625,0.06103515625,-0.3662109375,0.023958763107657433,-0.02393966168165207,-0.8510438799858093,0.5240012407302856
0,1651541253,55302937,-3.7213645362579784,0.9355704976477857,116.74142936931786,-0.01806640625,0.0625,1.00830078125,-0.42724609375,0.18310546875,-0.30517578125,0.023974936455488205,-0.02336610108613968,-0.8511207103729248,0.5239015221595764
0,1651541253,95348614,-3.526338516348608,1.0300087485372016,116.76045827634552,-0.0234375,0.0615234375,1.0029296875,-0.54931640625,0.1220703125,-0.3662109375,0.023780932649970055,-0.02148931659758091,-0.8512535691261292,0.5237749814987183
0,1651541253,136339685,-3.4806065578739642,0.9246721837750899,116.77517050381772,-0.009765625,0.0654296875,0.99658203125,0.06103515625,0.1220703125,-0.30517578125,0.02278686873614788,-0.021634416654706,-0.851321280002594,0.5237030386924744
0,1651541253,175093352,-3.656248500918839,0.9067376011185173,116.78672718389339,-0.01904296875,0.06201171875,1.01123046875,-0.48828125,0.18310546875,-0.3662109375,0.02345404028892517,-0.023023653775453568,-0.8513383865356445,0.523586630821228
0,1651541253,235929730,-3.7069904031496868,0.9147007479171059,116.80872039302082,-0.01708984375,0.06884765625,0.99609375,0.18310546875,0.18310546875,-0.3662109375,0.02374054118990898,-0.023368777707219124,-0.8514293432235718,0.523410439491272
0,1651541253,271008689,-3.6271540294887,0.8653156520927106,116.82688869621306,-0.02001953125,0.0625,1.01025390625,-0.6103515625,0.30517578125,-0.48828125,0.023005392402410507,-0.023004988208413124,-0.8515241146087646,0.5233051776885986
0,1651541253,311708498,-3.612008938777843,0.8334257123013326,116.84311722568101,-0.01513671875,0.0634765625,1.0,-0.42724609375,0.18310546875,-0.3662109375,0.022696061059832573,-0.02304140292108059,-0.8515984416007996,0.5231962203979492
0,1651541253,357116367,-3.541575387726437,0.9937080006458764,116.85784311353156,-0.02001953125,0.06201171875,1.0048828125,-0.42724609375,0.244140625,-0.3662109375,0.02356250025331974,-0.021788612008094788,-0.8516926765441895,0.5230578780174255
0,1651541253,397633573,-3.726838932877744,0.8176166524979562,116.8706565484145,-0.0146484375,0.06591796875,0.998046875,-0.3662109375,0.0,-0.30517578125,0.023097123950719833,-0.02397254854440689,-0.8516990542411804,0.5229727625846863
0,1651541253,433041006,-3.7000355630273214,0.8668776309785278,116.88625670047881,-0.01220703125,0.0673828125,0.98876953125,0.1220703125,0.1220703125,-0.3662109375,0.023337621241807938,-0.023551521822810173,-0.8517804145812988,0.5228487253189087
0,1651541253,477963139,-3.6910542911555777,0.8777091370634044,116.89982145617046,-0.01806640625,0.06298828125,1.00341796875,-0.67138671875,0.1220703125,-0.3662109375,0.02337435632944107,-0.023438064381480217,-0.8518451452255249,0.5227468609809875
0,1651541253,515197335,-3.7183575454758806,0.8420986118042206,116.91472492893942,-0.01171875,0.0673828125,0.9990234375,-0.18310546875,-0.06103515625,-0.30517578125,0.023231176659464836,-0.023806627839803696,-0.8519041538238525,0.5226403474807739
0,1651541253,555304093,-3.6147563823714806,1.0366785349834249,116.9295600998167,-0.0205078125,0.06201171875,1.00830078125,-0.48828125,0.18310546875,-0.42724609375,0.024201935157179832,-0.022151360288262367,-0.8520091772079468,0.522497832775116
0,1651541253,590981638,-3.6579073831135056,0.8377019443302894,116.9456383651229,-0.0146484375,0.0634765625,1.0029296875,-0.67138671875,0.0,-0.42724609375,0.022916480898857117,-0.023383475840091705,-0.8520572185516357,0.5224238038063049
0,1651541253,636260435,-3.669846980669511,0.8989938741470154,116.95899821513945,-0.015625,0.0634765625,0.99072265625,0.30517578125,0.1220703125,-0.30517578125,0.0234238151460886,-0.023195339366793633,-0.8521211743354797,0.5223053097724915
0,1651541253,696639874,-3.2449063345703446,1.0062521766651338,117.00876297343216,-0.0849609375,-0.564453125,1.27099609375,-15.68603515625,4.57763671875,-0.42724609375,0.022275736555457115,-0.01955561898648739,-0.8524353504180908,0.5219916701316833
0,1651541253,735319406,-3.672452697837871,0.9809188983118506,117.00537519960383,0.1015625,0.15966796875,0.8583984375,-5.18798828125,-1.28173828125,0.0,0.024035459384322166,-0.022850723937153816,-0.852338969707489,0.5219372510910034
0,1651541253,774874836,-3.071140559113108,1.1639844032108826,117.07015271369224,0.09423828125,-0.201171875,1.57275390625,-11.65771484375,11.77978515625,-2.197265625,0.022647799924016,-0.017555976286530495,-0.8527517318725586,0.521530032157898
0,1651541253,816990864,-3.3815156674993,1.001735607354757,117.0844414694359,0.06005859375,0.14013671875,0.7177734375,-1.15966796875,-2.01416015625,-0.06103515625,0.022850820794701576,-0.02060750685632229,-0.852755606174469,0.5214031338691711
0,1651541253,872250291,-3.689505118874454,1.1599914105890698,117.12692524607338,-0.03515625,0.0888671875,1.09228515625,-2.685546875,-0.1220703125,-0.3662109375,0.025421075522899628,-0.02218814752995968,-0.8529024124145508,0.5209787487983704
0,1651541253,915611390,-3.2227965853401903,1.1759767212895442,117.16763317352665,0.00634765625,-0.20458984375,1.33056640625,1.28173828125,4.33349609375,-1.8310546875,0.023411352187395096,-0.018649831414222717,-0.8531715869903564,0.5207708477973938
0,1651541253,955187618,-3.4482297536608115,1.0960279696723698,117.26288699169166,-0.10205078125,0.201171875,0.94580078125,0.3662109375,-2.13623046875,-2.685546875,0.023823600262403488,-0.020711693912744522,-0.8535608053207397,0.520035982131958
0,1651541253,996693157,-3.6876840196869995,1.2206285493799736,117.30358125876658,-0.044921875,0.09619140625,1.03125,0.67138671875,1.220703125,-1.28173828125,0.025830140337347984,-0.02193845994770527,-0.8537091612815857,0.5196462869644165
0,1651541254,18416869,-3.813435059382927,1.1402361556318656,117.32490510935537,-0.017578125,0.0966796875,1.0205078125,-1.3427734375,0.3662109375,-1.28173828125,0.025797400623559952,-0.023245053365826607,-0.8537752032279968,0.5194825530052185
0,1651541254,75092036,-3.600929518170436,1.1469008194362114,117.38328956638064,-0.03173828125,0.0927734375,0.80126953125,14.892578125,-7.6904296875,-2.38037109375,0.024872608482837677,-0.021644150838255882,-0.854081928730011,0.5190925002098083
0,1651541254,115592028,-2.827756372993224,1.2399445377961813,117.46144059086393,0.00390625,0.033203125,1.3935546875,5.2490234375,8.36181640625,-1.77001953125,0.022052466869354248,-0.015474122017621994,-0.8545655608177185,0.5186443328857422
0,1651541254,171073029,-2.966044011467299,1.1896770135475319,117.57151591952785,-0.0595703125,0.19970703125,1.09375,6.2255859375,-0.6103515625,-2.44140625,0.0222875215113163,-0.01675451174378395,-0.8550421595573425,0.5178083777427673
0,1651541254,215215477,-3.2391837032629316,1.0640635381303563,117.63887524512252,-0.00927734375,0.044921875,1.0576171875,-11.1083984375,7.14111328125,-1.953125,0.022573400288820267,-0.019373901188373566,-0.8552972078323364,0.5172832012176514
0,1651541254,255444877,-2.705072515121455,1.162380696138105,117.72708030806406,0.00244140625,0.0185546875,1.490234375,0.48828125,8.85009765625,-2.685546875,0.02088429220020771,-0.014959018677473068,-0.8557795882225037,0.5167024731636047
0,1651541254,290238749,-2.839947193444639,0.9950646469697702,117.83830310850854,-0.03125,-0.1142578125,0.85009765625,-9.94873046875,-0.79345703125,-3.84521484375,0.02022705227136612,-0.016740918159484863,-0.8562555313110352,0.5158848166465759
0,1651541254,335290307,-3.0764004451042526,0.9575084249316319,117.95418409796699,-0.00390625,0.0908203125,0.95849609375,-0.67138671875,-2.62451171875,-3.23486328125,0.02099207043647766,-0.01869814656674862,-0.8567382097244263,0.5149847865104675
0,1651541254,375657739,-2.883000437104168,1.1455528175704859,118.0317340658033,-0.1025390625,0.20556640625,1.11865234375,25.45166015625,-3.60107421875,-0.91552734375,0.021517347544431686,-0.01642097905278206,-0.8571252822875977,0.5143965482711792
0,1651541254,416352876,-2.3207424662798917,1.0758033526531388,118.16128909398012,-0.06884765625,0.4677734375,1.185546875,7.75146484375,4.5166015625,-2.01416015625,0.018457338213920593,-0.012549451552331448,-0.8577753305435181,0.5135400295257568
0,1651541254,474953898,-2.3946237687582737,1.1955361419166393,118.32906586075231,-0.0634765625,0.044921875,0.81884765625,22.39990234375,-3.90625,-2.25830078125,0.019666044041514397,-0.012594370171427727,-0.8585203289985657,0.5122475028038025
0,1651541254,515074639,-1.9953806421942222,1.3687061968122038,118.4792343998442,0.14599609375,0.08642578125,1.4931640625,1.220703125,18.00537109375,-2.44140625,0.019166789948940277,-0.008853606879711151,-0.8592285513877869,0.5111560821533203
0,1651541254,554949039,-2.7184285231565917,1.1467332663581344,118.61921229669444,-0.03955078125,0.1162109375,0.755859375,-14.83154296875,3.662109375,-5.18798828125,0.02070927806198597,-0.015291058458387852,-0.8597739934921265,0.5100255608558655
0,1651541254,594888809,-2.7117349377699793,1.3696484427525482,118.75103494767569,-0.09521484375,0.24560546875,1.03173828125,3.173828125,-2.44140625,-2.38037109375,0.02233508974313736,-0.014273564331233501,-0.86036616563797,0.5089868307113647
0,1651541254,635410878,-3.094878027799841,1.2936537303345765,118.88120469287779,-0.0244140625,0.07958984375,1.00390625,-3.60107421875,2.01416015625,-2.9296875,0.02344657853245735,-0.01751467026770115,-0.860888659954071,0.5079509615898132
0,1651541254,670674456,-3.334754271450689,1.4022082746911164,118.97425919013004,-0.06494140625,0.154296875,1.0927734375,-5.06591796875,0.06103515625,-2.9296875,0.025309694930911064,-0.018855614587664604,-0.8612666726112366,0.507172167301178
0,1651541254,715369608,-3.4781180211385525,1.288826387416964,119.10063135015362,0.04931640625,0.1416015625,1.0322265625,-2.86865234375,2.50244140625,-3.90625,0.025069845840334892,-0.020463181659579277,-0.8617960214614868,0.5062218308448792
0,1651541254,775005741,-3.1243082457163682,1.30821451970628,119.31774940348998,-0.0205078125,0.03466796875,0.89306640625,-2.0751953125,-2.13623046875,-4.82177734375,0.02361888997256756,-0.017761263996362686,-0.8628134727478027,0.5046579837799072
0,1651541254,815461643,-3.201943164030495,1.4504284497360542,119.45959877217281,-0.0166015625,0.1318359375,0.958984375,4.69970703125,-3.23486328125,-3.2958984375,0.025009194388985634,-0.01774980127811432,-0.863429844379425,0.5035358667373657
0,1651541254,858011156,-3.4175434212672364,1.451821274718208,119.57579395033306,0.1357421875,0.14794921875,0.9267578125,2.25830078125,1.28173828125,-2.99072265625,0.02594737708568573,-0.01939447410404682,-0.8639050126075745,0.5026119351387024
0,1651541254,897126509,-2.9393074494046956,1.7405937754201193,119.67666218399582,-0.04931640625,-0.46484375,0.93359375,-16.29638671875,0.6103515625,0.06103515625,0.026013102382421494,-0.014543482102453709,-0.8644227385520935,0.5018817186355591
0,1651541254,955113491,-2.4100164538265436,1.9265319084736707,119.80588936309246,0.16845703125,-0.494140625,1.22216796875,-0.6103515625,11.77978515625,2.25830078125,0.025085847824811935,-0.009763468988239765,-0.8650408983230591,0.5009787082672119
0,1651541254,996051704,-2.3993033021133785,1.7685837839171257,119.873002801877,0.02001953125,-0.6640625,0.79150390625,-16.54052734375,-14.83154296875,-1.0986328125,0.02384105697274208,-0.010387920774519444,-0.8653398752212524,0.5005105137825012
0,1651541255,37318199,-2.1221252609709755,1.7809655295001836,120.07243066526304,-0.08740234375,-0.37060546875,0.955078125,-11.41357421875,-4.21142578125,-5.18798828125,0.022709432989358902,-0.008280176669359207,-0.8662319183349609,0.49905720353126526
0,1651541255,81039928,-2.002870158062553,1.7833588704740384,120.34959974178216,0.00830078125,-0.412109375,1.078125,-25.146484375,0.244140625,-3.662109375,0.02219025231897831,-0.007421947084367275,-0.8674445748329163,0.49698343873023987
0,1651541255,115596484,-1.956213562729019,2.0136200220425065,120.49968631860402,-0.12255859375,-0.587890625,0.60205078125,3.7841796875,-8.85009765625,-4.82177734375,0.023722410202026367,-0.006100233644247055,-0.8680858016014099,0.4958097040653229
0,1651541255,155229376,-2.1153151354816497,1.9889451098921893,120.7028844464119,-0.044921875,0.0390625,0.96923828125,-1.3427734375,-6.53076171875,-5.92041015625,0.024210747331380844,-0.007455320097506046,-0.8689555525779724,0.4942414164543152
0,1651541255,214998806,-2.176282684673653,2.3728798615355378,121.04668884847365,-0.0888671875,0.15869140625,0.69482421875,-0.91552734375,3.60107421875,-9.94873046875,0.027364950627088547,-0.006341917905956507,-0.8704061508178711,0.4915323257446289
0,1651541255,255379356,-1.76273852936977,2.317197171213832,121.2780000349053,-0.0390625,-0.2333984375,0.845703125,5.4931640625,0.67138671875,-4.57763671875,0.025161102414131165,-0.0034906731452792883,-0.8714190125465393,0.4898812770843506
0,1651541255,295580791,-1.7325157960661097,2.2269983333648784,121.46245612363067,0.03857421875,-0.1787109375,0.77783203125,9.33837890625,-4.08935546875,-4.0283203125,0.024340301752090454,-0.003686050418764353,-0.8722150921821594,0.4885026812553406
0,1651541255,335284364,-1.9444784439612908,2.269184569886639,121.69216904579655,0.06640625,0.19482421875,0.79345703125,23.62060546875,-1.64794921875,-4.7607421875,0.025554517284035683,-0.005170600488781929,-0.8731809854507446,0.4866984784603119
0,1651541255,371281519,-1.1623455846969029,2.3027841914046356,121.9475088377283,0.05810546875,-0.00146484375,1.5810546875,7.14111328125,9.82666015625,-7.38525390625,0.022490033879876137,0.0008820253424346447,-0.8742749094963074,0.48490920662879944
0,1651541255,416262814,-2.086900481317339,2.065952077689498,122.20265738436329,-0.02392578125,0.18310546875,0.8134765625,-8.48388671875,-0.42724609375,-5.7373046875,0.02457941137254238,-0.0072296434082090855,-0.8753470182418823,0.48281601071357727
0,1651541255,457995238,-2.204013466147316,2.180333627181705,122.44466464703518,-0.0263671875,0.1923828125,0.94921875,14.0380859375,-2.99072265625,-5.126953125,0.025930030271410942,-0.007696509826928377,-0.8763498067855835,0.4809151589870453
0,1651541255,494908864,-2.5918486826935654,2.0906133294614753,122.55755401363716,-0.0322265625,0.1513671875,1.02783203125,-0.8544921875,-0.30517578125,-1.0986328125,0.02686084434390068,-0.01106598973274231,-0.876796305179596,0.4799835979938507
0,1651541255,535048578,-3.11768488321216,1.8198279184953812,122.40401136109527,0.01171875,0.24560546875,1.07177734375,0.79345703125,1.953125,7.50732421875,0.02701408974826336,-0.01618904061615467,-0.8760969042778015,0.48110538721084595
0,1651541255,595171598,-3.7462153257794237,1.4752368707403043,121.74484346467568,0.0400390625,0.19091796875,1.06201171875,-0.79345703125,0.91552734375,12.939453125,0.02714831382036209,-0.02228725142776966,-0.8732038140296936,0.4860878884792328
0,1651541255,634835720,-3.959099515604027,1.4121340336590258,121.14914168602385,0.111328125,0.12451171875,0.95166015625,5.126953125,-3.35693359375,15.13671875,0.027696020901203156,-0.024033840745687485,-0.8706191778182983,0.49058911204338074
0,1651541255,675126744,-4.130982506727867,1.0470730156831265,120.42490940757071,0.07373046875,0.0712890625,1.12548828125,-2.685546875,-5.126953125,23.0712890625,0.025829171761870384,-0.026742098852992058,-0.8674370050430298,0.4961559772491455
0,1651541255,714824909,-4.311190217789484,0.4095575393039903,119.01992583492076,0.14453125,0.091796875,1.02880859375,-8.4228515625,-5.0048828125,39.6728515625,0.02216210775077343,-0.030599720776081085,-0.8611704111099243,0.5069104433059692
0,1651541255,756688134,-4.450900029714802,-0.46355901591409454,116.99075859478,0.1435546875,0.1279296875,0.99853515625,-0.91552734375,-6.89697265625,52.91748046875,0.01684558019042015,-0.03521987423300743,-0.8518658876419067,0.5223029851913452
0,1651541255,791095555,-4.523862244862994,-1.0024742282804704,114.72248009217545,0.1513671875,0.0986328125,1.04931640625,-1.64794921875,-11.3525390625,65.5517578125,0.013924872502684593,-0.03794870153069496,-0.8412131667137146,0.5391904711723328
0,1651541255,856515976,-4.421558390814074,-2.0627203309950244,110.48856193890043,0.16162109375,0.06884765625,1.0126953125,-0.91552734375,-5.79833984375,68.78662109375,0.007210349198430777,-0.041941944509744644,-0.820449709892273,0.5701326727867126
0,1651541255,895035046,-4.294192865153084,-2.7466914190552814,107.44461983339255,0.10302734375,0.0625,0.99609375,0.3662109375,-4.2724609375,71.044921875,0.0028539984486997128,-0.044365525245666504,-0.8048300743103027,0.5918381214141846
0,1651541255,943398923,-3.831573053610719,-3.4171176016611686,103.80117836405431,0.220703125,0.005859375,1.1171875,-4.5166015625,-5.55419921875,73.974609375,-0.00283156824298203,-0.04468292370438576,-0.7855368256568909,0.6171932816505432
0,1651541255,982334297,-3.4760653358495524,-3.895355067627591,101.46559517736846,0.146484375,0.02001953125,0.9404296875,-3.2958984375,-5.31005859375,71.4111328125,-0.007114849053323269,-0.044969458132982254,-0.7727469801902771,0.6330791711807251
0,1651541256,31145386,-2.934746377143008,-4.836201246078977,96.86084556348594,0.28759765625,0.04443359375,0.92236328125,0.18310546875,-1.28173828125,74.27978515625,-0.014578758738934994,-0.04712731018662453,-0.7465223073959351,0.6635292768478394
0,1651541256,75259198,-2.735113181195052,-5.16176434730175,93.55669374116808,0.244140625,0.05859375,0.927734375,3.96728515625,-5.92041015625,75.8056640625,-0.016476744785904884,-0.04820236191153526,-0.727027416229248,0.6847162246704102
0,1651541256,114782727,-2.670898303939531,-5.835728141010881,90.75488867192631,0.220703125,0.09619140625,0.90283203125,10.68115234375,-9.82666015625,73.2421875,-0.019871694967150688,-0.05231362208724022,-0.7098004221916199,0.7021764516830444
0,1651541256,162395172,-2.4907471553819787,-6.186782361989788,87.48902005990638,0.171875,0.0498046875,0.986328125,3.60107421875,-0.8544921875,74.8291015625,-0.021625472232699394,-0.05398179963231087,-0.6894259452819824,0.7220181822776794
0,1651541256,196042713,-2.4891070562075295,-6.694507035263625,84.1910222380307,0.14404296875,0.1103515625,0.9794921875,-3.5400390625,-3.60107421875,74.64599609375,-0.02304256334900856,-0.057850323617458344,-0.6681259274482727,0.7414379715919495
0,1651541256,258162078,-2.25323757227854,-7.368085350171473,79.58069235959628,0.2451171875,0.05126953125,1.0,-3.2958984375,-4.8828125,72.6318359375,-0.026036730036139488,-0.06192021071910858,-0.6375635266304016,0.7674638628959656
0,1651541256,300649038,-1.983621617764399,-7.508384265912705,76.8370668417047,0.2001953125,0.07666015625,0.85205078125,7.62939453125,-3.47900390625,71.96044921875,-0.02714809961616993,-0.06202544644474983,-0.6190869212150574,0.7823982834815979
0,1651541256,316918345,-1.8982327271950152,-7.6609664231025585,74.99998501159222,0.2236328125,0.072265625,1.00341796875,-0.79345703125,4.2724609375,74.0966796875,-0.027550460770726204,-0.06305377185344696,-0.6064401268959045,0.7921462655067444
0,1651541256,376350887,-1.6962211313120141,-7.998141272801177,70.78715165228503,0.162109375,0.08447265625,0.8232421875,-2.01416015625,-4.08935546875,74.76806640625,-0.02835150808095932,-0.0653977170586586,-0.5768747329711914,0.8137167692184448
0,1651541256,415007317,-1.3496700327085551,-8.365577275617536,67.42434216537511,0.15771484375,0.02099609375,1.03662109375,1.46484375,0.0,74.40185546875,-0.030708538368344307,-0.06718830019235611,-0.5527898073196411,0.8300398588180542
0,1651541256,474957814,-1.140042669179284,-8.631639610772567,62.73900997966477,0.20556640625,0.103515625,0.97021484375,-1.77001953125,-6.4697265625,73.8525390625,-0.030701659619808197,-0.06941493600606918,-0.5184142589569092,0.8517544865608215
0,1651541256,537777065,-1.0139059372386618,-8.701652464859782,59.60538749035462,0.2060546875,0.0849609375,0.86474609375,2.8076171875,-3.60107421875,72.3876953125,-0.03004814311861992,-0.07021204382181168,-0.4949806332588196,0.8655411601066589
0,1651541256,552164351,-0.7046289952049608,-9.025050823002484,56.82763834736965,0.1826171875,0.0361328125,0.92919921875,0.732421875,4.45556640625,73.6083984375,-0.03204518184065819,-0.07211465388536453,-0.473926842212677,0.877021074295044
0,1651541256,595288646,-0.5646837018358357,-8.81646709103405,53.59358134140905,0.1435546875,0.1611328125,1.05419921875,2.50244140625,4.69970703125,72.509765625,-0.030265646055340767,-0.0708223208785057,-0.44915029406547546,0.8901305198669434
0,1651541256,635583990,-0.2725258552244046,-8.623474119619816,50.612565768724494,0.146484375,-0.0009765625,1.0,-0.3662109375,2.5634765625,58.9599609375,-0.02999347448348999,-0.06898163259029388,-0.4260843098163605,0.9015510678291321
0,1651541256,675481748,-0.14703210822090254,-8.131612560693334,48.81906737570586,0.0634765625,0.0234375,1.00732421875,-4.39453125,8.85009765625,38.39111328125,-0.02813524752855301,-0.06509342789649963,-0.41213271021842957,0.9083600640296936
0,1651541256,735478927,-0.17752348673844107,-7.167990689567718,47.827218040287875,0.04443359375,0.04833984375,1.11572265625,-2.3193359375,2.74658203125,5.67626953125,-0.02392621710896492,-0.05777226388454437,-0.40447691082954407,0.9124079942703247
0,1651541256,781365364,-0.3988931860907939,-6.843105911506892,47.637690536103776,-0.005859375,0.07568359375,0.88525390625,-0.79345703125,-1.953125,4.82177734375,-0.020923325791954994,-0.056001536548137665,-0.40293383598327637,0.9132745265960693
0,1651541256,817881436,-0.4781410962661015,-6.45055060735734,47.504235469910896,-0.03662109375,0.0205078125,1.03955078125,-1.15966796875,7.14111328125,2.5634765625,-0.018847940489649773,-0.05317388474941254,-0.40192413330078125,0.9139334559440613
0,1651541256,856116955,-0.6106279297832785,-6.023215126180438,47.38573168781118,0.00244140625,0.0654296875,0.97607421875,0.9765625,2.197265625,2.25830078125,-0.016238519921898842,-0.050247568637132645,-0.4010167121887207,0.9145475029945374
0,1651541256,890652233,-0.9001730422741946,-5.812584045008292,47.303503040393394,0.080078125,0.05908203125,0.8828125,2.13623046875,2.13623046875,2.13623046875,-0.013153763487935066,-0.049589551985263824,-0.4002833664417267,0.9149541854858398
0,1651541256,935406130,-0.9835559916617103,-5.333871880894555,47.213044015025744,-0.03125,0.04833984375,1.06787109375,2.0751953125,0.6103515625,2.99072265625,-0.010776138864457607,-0.04606805369257927,-0.3996388912200928,0.915450930595398
0,1651541256,975300017,-1.1487410218090008,-4.918670657665003,47.09976532764108,-0.02880859375,0.029296875,1.140625,-7.26318359375,3.84521484375,2.86865234375,-0.007962728850543499,-0.04333601891994476,-0.3987649083137512,0.9159941077232361
0,1651541257,9997260,-1.424168506811471,-5.0724442559782,46.571733648191156,0.05810546875,0.05908203125,0.9970703125,-0.732421875,-2.9296875,19.53125,-0.006087510846555233,-0.04555149003863335,-0.3943960666656494,0.9177907109260559
0,1651541257,76363330,-1.4972216488529886,-5.394493651759825,44.4395466647991,0.111328125,0.03662109375,0.95654296875,-0.18310546875,-2.38037109375,43.64013671875,-0.0057123987935483456,-0.04849550127983093,-0.3771399259567261,0.924868106842041
0,1651541257,95767953,-1.4454241622302564,-5.605451301351663,43.58882952820109,0.1123046875,0.0234375,1.017578125,1.220703125,1.46484375,45.59326171875,-0.006455223076045513,-0.05007604882121086,-0.3702310025691986,0.927566647529602
0,1651541257,140527801,-1.5499691721005873,-5.911670026184491,41.45281080868466,0.12353515625,0.033203125,1.07421875,-4.150390625,-0.18310546875,50.72021484375,-0.005614479072391987,-0.053004879504442215,-0.3527504503726959,0.9341980814933777
0,1651541257,190902612,-1.5067433594428095,-6.1185953028450815,38.47033357551772,0.22802734375,0.02099609375,1.06787109375,-2.25830078125,1.0986328125,53.8330078125,-0.005184118170291185,-0.0547112338244915,-0.32828572392463684,0.9429784417152405
0,1651541257,245307098,-1.6361107708608476,-6.112870750546964,35.78410213722175,0.07568359375,0.10595703125,0.9365234375,-4.82177734375,-2.0751953125,53.77197265625,-0.002811954589560628,-0.05511578544974327,-0.30603185296058655,0.9504203796386719
0,1651541257,275336116,-1.5869704412686618,-6.310719986461078,33.711184120352485,0.16357421875,0.0498046875,1.02197265625,5.43212890625,2.13623046875,55.96923828125,-0.002725491998717189,-0.05668321251869202,-0.2887636423110962,0.9557170867919922
0,1651541257,312145306,-1.4895961695314923,-6.474146349618795,31.616248988693684,0.1591796875,0.00244140625,1.0517578125,-7.26318359375,-2.9296875,56.45751953125,-0.002894161967560649,-0.057862747460603714,-0.2712527811527252,0.9607630372047424
0,1651541257,354140324,-1.432349259168148,-6.56628730906956,29.360872713431284,0.15771484375,0.05078125,1.107421875,-3.35693359375,5.2490234375,45.71533203125,-0.002441359218209982,-0.05855882167816162,-0.2522994577884674,0.9658726453781128
0,1651541257,401823288,-1.405326789655756,-6.085944010404658,27.883557437470884,-0.0283203125,0.06591796875,0.966796875,-2.685546875,2.3193359375,21.05712890625,-0.0009036607225425541,-0.05446775630116463,-0.2399461269378662,0.9692566394805908
0,1651541257,456586453,-1.4313502372803277,-5.357550012312873,27.363479513309432,0.009765625,0.04736328125,1.10791015625,1.77001953125,1.77001953125,4.2724609375,0.0010692469077184796,-0.04835784435272217,-0.2356843799352646,0.9706252813339233
0,1651541257,515460691,-1.5581107575912423,-4.790131193240417,27.146720044904495,0.0029296875,0.0546875,1.16943359375,-10.1318359375,4.57763671875,3.7841796875,0.003398661967366934,-0.04380689188838005,-0.23391114175319672,0.971264660358429
0,1651541257,557576335,-1.669402500257665,-4.454988324819878,27.027420545766468,-0.00244140625,0.0478515625,0.98876953125,-5.859375,-1.77001953125,2.8076171875,0.0050722695887088776,-0.04118882492184639,-0.232926145195961,0.9716085195541382
0,1651541257,600921340,-1.698788215222881,-4.033319339333148,26.927225085736964,0.0087890625,0.08740234375,0.95263671875,3.5400390625,-1.64794921875,2.25830078125,0.006215524859726429,-0.03766857087612152,-0.23215067386627197,0.9719303846359253
0,1651541257,654656784,-1.9772729569308722,-3.6252846920902324,26.77869237695128,-0.044921875,0.03662109375,0.97998046875,0.18310546875,-5.4931640625,3.41796875,0.009453045204281807,-0.034760430455207825,-0.23088575899600983,0.9723138213157654
0,1651541257,694693950,-2.0717854861275122,-3.361772151929732,26.6997200222203,-0.0458984375,0.03076171875,1.09228515625,-4.21142578125,7.568359375,1.708984375,0.010810934007167816,-0.03270803019404411,-0.2302434891462326,0.9725231528282166
0,1651541257,742113296,-2.1742714074064957,-2.9974447389593744,26.56515846538188,-0.0078125,0.03271484375,1.11572265625,-8.11767578125,5.4931640625,3.11279296875,0.012451042421162128,-0.02980802208185196,-0.2291509062051773,0.9728547930717468
0,1651541257,775258144,-2.219550438961803,-2.791366192312454,26.416982633980332,-0.1015625,0.060546875,1.02685546875,3.11279296875,3.173828125,2.62451171875,0.01328566949814558,-0.028132233768701553,-0.22792524099349976,0.9731814861297607
0,1651541257,812793201,-2.218060390505682,-2.4960919918509252,26.311068598068236,0.00244140625,0.0048828125,0.95947265625,-4.08935546875,0.54931640625,2.25830078125,0.013886316679418087,-0.02560926042497158,-0.2270880937576294,0.9734385013580322
0,1651541257,858813319,-2.1461011459484243,-2.2301854703863357,26.21532983647217,0.01416015625,0.04736328125,1.056640625,-1.953125,1.77001953125,1.46484375,0.013823213055729866,-0.023196620866656303,-0.22634392976760864,0.9736731052398682
0,1651541257,902275398,-2.201629089796747,-1.7999894206076674,26.109569479816397,0.00244140625,0.05126953125,0.970703125,-0.42724609375,-6.77490234375,4.33349609375,0.0151654789224267,-0.01963748410344124,-0.2255190908908844,0.9739227890968323
0,1651541257,937068534,-2.4081133923690485,-1.8344453770928546,26.00924083109808,0.1044921875,0.1083984375,0.8876953125,0.244140625,6.65283203125,1.220703125,0.016870183870196342,-0.02032184600830078,-0.22462336719036102,0.974087655544281
0,1651541257,999460603,-2.3954698584417087,-1.2814197943140258,25.868918009694752,-0.041015625,0.083984375,0.97119140625,-1.15966796875,-0.8544921875,3.173828125,0.01786879636347294,-0.015574685297906399,-0.2235455960035324,0.9744052886962891
0,1651541258,14824415,-2.3271190882003334,-1.1516956122335604,25.815521298310887,0.0166015625,0.0400390625,1.14794921875,-3.90625,1.0986328125,2.99072265625,0.017547830939292908,-0.014330177567899227,-0.22312584519386292,0.9745264649391174
0,1651541258,80590044,-2.4525042858888426,-0.7567460066148026,25.687373289103107,0.0009765625,0.0185546875,1.00732421875,-0.18310546875,2.38037109375,1.46484375,0.01939697377383709,-0.011194160208106041,-0.22209839522838593,0.9747670888900757
0,1651541258,114446937,-2.6502517092956404,-0.7286386576022894,25.63283081348597,-0.03466796875,0.06201171875,0.9990234375,0.48828125,6.34765625,0.79345703125,0.021139010787010193,-0.011328284628689289,-0.22162067890167236,0.9748379588127136
0,1651541258,180582026,-2.8225600931387254,-0.44775715982585845,25.502430549399378,-0.00244140625,0.11328125,0.98291015625,-0.67138671875,-2.25830078125,2.8076171875,0.023159226402640343,-0.009245909750461578,-0.2205556184053421,0.9750556349754333
0,1651541258,196193874,-2.698587677391351,-0.3835932955457009,25.45772354618706,-0.107421875,0.00244140625,1.2919921875,-5.2490234375,8.60595703125,2.13623046875,0.02223123423755169,-0.008452660404145718,-0.2201983630657196,0.9751651287078857
0,1651541258,259067262,-2.8067260070953433,-0.12073824113409387,25.284465552605933,-0.05517578125,0.02783203125,1.0263671875,-1.64794921875,-0.9765625,2.5634765625,0.02366654761135578,-0.006387914530932903,-0.21877159178256989,0.9754681587219238
0,1651541258,271344746,-2.8708589220808243,-0.1175242369232062,25.22886781276203,0.021484375,0.06005859375,1.09716796875,1.953125,1.3427734375,3.0517578125,0.02422175742685795,-0.006471241824328899,-0.21829535067081451,0.9755606651306152
0,1651541258,334646853,-2.9363892510818075,0.06622996982366001,25.09874075624224,-0.04345703125,0.03662109375,1.103515625,5.31005859375,-0.06103515625,2.44140625,0.025135429576039314,-0.005003201309591532,-0.2172238826751709,0.9757852554321289
0,1651541258,407898842,-2.948057775505128,-0.05732700500353351,24.99618888094908,0.0380859375,0.07080078125,1.033203125,3.7841796875,-7.01904296875,3.60107421875,0.025006016716361046,-0.006055071949958801,-0.2163229137659073,0.9759829044342041
0,1651541258,421203374,-3.191356157373564,-0.2432755167429721,24.94900422661534,0.0908203125,0.0947265625,0.90869140625,2.8076171875,2.99072265625,0.9765625,0.026730390265583992,-0.008086970075964928,-0.21586313843727112,0.9760242104530334
0,1651541258,460844234,-3.3215162976221464,-0.14077782939592617,24.932995970748124,-0.13037109375,0.45263671875,0.9990234375,-5.18798828125,-16.845703125,1.8310546875,0.028033211827278137,-0.007455271668732166,-0.21574309468269348,0.9760192632675171
0,1651541258,516153415,-2.906062143949893,-0.1273514383958265,24.88709880707293,0.091796875,0.029296875,0.71728515625,5.67626953125,-3.60107421875,1.77001953125,0.024522367864847183,-0.006548854522407055,-0.21538066864013672,0.9762003421783447
0,1651541258,555548320,-2.3670120887082624,0.2055836914374253,24.870451928518317,-0.013671875,-0.0244140625,1.1728515625,1.40380859375,-1.953125,-0.244140625,0.020556259900331497,-0.002696074778214097,-0.21532565355300903,0.9763222336769104
0,1651541258,595169566,-2.492179574116977,0.2593573038654729,24.90604062918867,-0.05810546875,0.07666015625,0.92822265625,-0.79345703125,-2.197265625,-1.0986328125,0.021722914651036263,-0.002479869406670332,-0.2156355381011963,0.9762291312217712
0,1651541258,634664331,-2.2566985571970326,0.5624374767334006,24.917421431893203,-0.0634765625,-0.01171875,1.07763671875,-2.8076171875,-7.080078125,1.708984375,0.02028685435652733,0.0005434132763184607,-0.2157859355211258,0.9762298464775085
0,1651541258,676867229,-2.4361730901399303,0.3681159801647462,24.89563995863003,-0.04638671875,0.0703125,0.85009765625,2.50244140625,1.0986328125,-0.42724609375,0.021450474858283997,-0.001445962581783533,-0.21556726098060608,0.9762523174285889
0,1651541258,715318435,-2.544790813746293,0.5560640564641325,24.860455946668004,-0.27001953125,-0.00439453125,2.5029296875,20.5078125,8.1787109375,3.47900390625,0.022729137912392616,-4.2087867768714204e-05,-0.21530018746852875,0.9762834310531616
0,1651541258,777386862,-3.1970077120249263,0.31951881069413524,24.809458339230105,0.154296875,0.0693359375,0.74951171875,7.38525390625,9.27734375,0.91552734375,0.027842938899993896,-0.003270212560892105,-0.21480746567249298,0.9762539863586426
0,1651541258,820406880,-2.7243799658012002,0.5240093917198808,24.822495462808366,-0.04736328125,0.00048828125,1.18115234375,-5.43212890625,-5.18798828125,-0.42724609375,0.02419920451939106,-0.0006445908802561462,-0.21497021615505219,0.9763205647468567
0,1651541258,851610674,-2.846768417991366,0.2865267825275787,24.858070503100375,0.01318359375,0.0810546875,0.84716796875,5.31005859375,-0.30517578125,-1.28173828125,0.024795934557914734,-0.002905281027778983,-0.21522380411624908,0.976245641708374
0,1651541258,896092123,-2.583400805907317,0.34267165787659754,24.8725061079112,0.02685546875,0.00927734375,0.98828125,4.0283203125,-0.3662109375,1.03759765625,0.022657305002212524,-0.0019351193914189935,-0.21536338329315186,0.9762692451477051
0,1651541258,935216467,-2.59276841035399,0.5461780513316266,24.85530256893923,-0.080078125,-0.00341796875,1.1376953125,-6.591796875,6.04248046875,0.1220703125,0.02311934158205986,-0.00021541868045460433,-0.21525441110134125,0.976284384727478
0,1651541258,991044563,-2.907401928244273,0.575961678176849,24.787046781016,0.013671875,0.04541015625,1.1376953125,-4.69970703125,-0.1220703125,0.6103515625,0.02585604228079319,-0.0005372965824790299,-0.21467766165733337,0.9763425588607788
0,1651541259,34426908,-3.2592674476305312,0.5010563275706414,24.576029794155748,-0.00830078125,0.1103515625,0.88525390625,-3.0517578125,-5.06591796875,10.07080078125,0.028717057779431343,-0.0017817988991737366,-0.2128593921661377,0.9766591191291809
0,1651541259,76950088,-3.1847880767129504,0.025024869298841214,23.836489354225325,0.05908203125,0.09765625,0.890625,8.60595703125,-6.40869140625,21.3623046875,0.027234984561800957,-0.005525261629372835,-0.2064419537782669,0.9780641198158264
0,1651541259,115281309,-3.305690749315227,-0.08982901378788792,22.920859807302804,-0.00146484375,0.0693359375,1.0751953125,-1.953125,2.62451171875,24.35302734375,0.02811281383037567,-0.006498920731246471,-0.19858624041080475,0.9796586036682129
0,1651541259,135393881,-3.3400030583844322,-0.1988859305640741,22.3211657830811,0.05224609375,0.0712890625,0.9736328125,4.45556640625,-2.44140625,22.94921875,0.028255918994545937,-0.007342934608459473,-0.19342732429504395,0.9806801676750183
0,1651541259,195267298,-3.388878184537751,-0.10430319182524325,21.59645880648065,0.060546875,0.0634765625,0.91015625,-0.79345703125,-1.3427734375,5.9814453125,0.028875181451439857,-0.0064335293136537075,-0.1872425079345703,0.9818682074546814
0,1651541259,237726550,-3.1957669654735112,0.10660219748129385,21.382719989236147,-0.0068359375,0.07177734375,1.025390625,-5.4931640625,-0.42724609375,5.615234375,0.02757316082715988,-0.004259350709617138,-0.18547171354293823,0.9822534918785095
0,1651541259,294930391,-3.1053711193556848,0.052796975418015105,21.101119827492987,0.02197265625,0.068359375,0.97265625,-2.5634765625,-1.15966796875,2.685546875,0.026722392067313194,-0.0045086052268743515,-0.18304812908172607,0.9827303886413574
0,1651541259,315395562,-2.9351766790607186,0.11682506300799225,21.05658528655721,-0.0146484375,0.03564453125,1.07763671875,0.8544921875,-1.28173828125,2.5634765625,0.02536647953093052,-0.0036777479108422995,-0.18268665671348572,0.9828370809555054
0,1651541259,388699513,-3.159131751756267,0.06808742776225307,20.920527918290556,-0.05224609375,0.05908203125,1.06982421875,5.37109375,-4.69970703125,2.13623046875,0.027214856818318367,-0.004420468118041754,-0.181500643491745,0.9830042719841003
0,1651541259,421067331,-3.358874017287531,-0.2676854122174076,20.8810221041312,-0.05615234375,0.01904296875,1.05908203125,-5.43212890625,-1.52587890625,0.18310546875,0.028399068862199783,-0.007607263512909412,-0.18106886744499207,0.9830308556556702
0,1651541259,462896065,-3.568700843684908,-0.19300815257688145,20.843500459925735,-0.0849609375,0.09228515625,0.83984375,3.35693359375,0.18310546875,1.220703125,0.030319496989250183,-0.007288302294909954,-0.1807529628276825,0.983034074306488
0,1651541259,490871114,-3.4586167638411083,-0.02604798027668822,20.768976265891727,-0.0087890625,0.0537109375,1.04443359375,1.28173828125,-1.5869140625,2.13623046875,0.029642287641763687,-0.005663074553012848,-0.18016400933265686,0.9831735491752625
0,1651541259,532238941,-3.5959430531895036,-0.13908698405037778,20.71261183731349,0.02294921875,0.07568359375,0.9658203125,-12.26806640625,-0.18310546875,0.79345703125,0.030646121129393578,-0.006833716295659542,-0.17964290082454681,0.983230710029602
0,1651541259,571370580,-3.1806197403285386,-0.025997982825056262,20.64450802109929,0.0087890625,0.029296875,0.994140625,-4.45556640625,4.7607421875,1.8310546875,0.02726278081536293,-0.005195945035666227,-0.179109126329422,0.9834376573562622
0,1651541259,614240632,-3.0527293573185155,0.3432001170832008,20.53831565497852,-0.1123046875,0.06298828125,1.0400390625,-7.32421875,-4.57763671875,3.96728515625,0.02674386277794838,-0.0018026549369096756,-0.17828701436519623,0.9836133122444153
0,1651541259,661853461,-3.023359330444049,0.40529731553090065,20.347529688439845,-0.0927734375,0.07568359375,1.05322265625,-3.96728515625,-0.91552734375,3.35693359375,0.02659028209745884,-0.0011796492617577314,-0.17666330933570862,0.9839115142822266
0,1651541259,690613762,-2.920842886757212,0.4524663084543178,20.267269843050318,0.0146484375,0.0634765625,0.82861328125,-12.0849609375,13.916015625,-1.03759765625,0.0257831122726202,-0.0005985163734294474,-0.1759851723909378,0.9840549230575562
0,1651541259,754388582,-3.1494435553054267,0.502907255474862,20.165122656465485,0.16748046875,0.1015625,0.98388671875,23.92578125,-15.07568359375,5.7373046875,0.027823982760310173,-0.000491633138153702,-0.17511799931526184,0.9841541647911072
0,1651541259,791023040,-2.9521242993822243,0.2578018616841347,20.121242106142738,-0.01123046875,-0.0146484375,1.00830078125,4.39453125,0.48828125,-1.0986328125,0.02575601637363434,-0.002285464433953166,-0.1746886819601059,0.9842842221260071
0,1651541259,835593918,-3.064452309811785,0.18479162176834124,20.15924527868469,0.02001953125,0.04052734375,0.9560546875,3.7841796875,9.09423828125,-1.15966796875,0.02660859376192093,-0.0030926447361707687,-0.17499622702598572,0.9842046499252319
0,1651541259,874427640,-2.963568494779992,0.5603617929168043,20.174659308094117,-0.041015625,0.03076171875,1.10498046875,4.150390625,-0.6103515625,1.03759765625,0.026315296068787575,0.0002837120555341244,-0.17521284520626068,0.9841788411140442
0,1651541259,935224343,-3.2237150323401456,0.748067450861508,20.196270026628035,-0.00634765625,0.078125,1.06103515625,8.30078125,4.5166015625,0.30517578125,0.02883632481098175,0.0014926050789654255,-0.17544233798980713,0.9840661883354187
0,1651541259,977515262,-3.67679541748953,0.8704196710325612,20.157563344601574,0.06640625,0.0498046875,0.7080078125,-4.39453125,-13.7939453125,0.42724609375,0.0329132042825222,0.0018606958910822868,-0.1751469075679779,0.9839902520179749
0,1651541260,18411272,-3.347869301874171,0.6698392132240892,20.2027467535085,0.11474609375,0.01513671875,1.43994140625,-12.26806640625,1.46484375,3.47900390625,0.029783004894852638,0.0006290222518146038,-0.17548057436943054,0.984032154083252
0,1651541260,57852507,-3.0979972898164214,0.8979513098032363,20.364589793439244,-0.10888671875,0.05078125,0.90625,-1.708984375,-2.0751953125,-4.94384765625,0.02799002267420292,0.0029312330298125744,-0.17691905796527863,0.9838230013847351
0,1651541260,99978870,-3.185233106226059,0.9323944596837297,20.550720986058554,-0.0478515625,0.0966796875,0.900390625,-5.4931640625,-0.732421875,-4.33349609375,0.028797008097171783,0.0030455030500888824,-0.17852678894996643,0.9835088849067688
0,1651541260,134681808,-2.8763595722402115,0.8815364975978446,20.714580639341747,0.01611328125,0.056640625,1.16162109375,0.67138671875,-3.90625,-4.5166015625,0.02607126533985138,0.003052855608984828,-0.17991389334201813,0.983332097530365
0,1651541260,174868109,-2.9230086970543407,0.7265471789732375,20.963283194947543,-0.015625,0.0146484375,0.98046875,1.89208984375,1.03759765625,-5.06591796875,0.026232242584228516,0.0015926086343824863,-0.18201664090156555,0.9829442501068115
0,1651541260,229941221,-2.8765467621121523,1.0550261306413715,21.242071026299953,-0.07568359375,0.07666015625,1.1025390625,0.18310546875,-3.173828125,-4.2724609375,0.026365280151367188,0.004420092329382896,-0.18447345495224,0.9824738502502441
0,1651541260,274672433,-2.979806629201463,0.9895367827754085,21.45367711697612,0.02197265625,0.02734375,1.0732421875,-5.67626953125,2.13623046875,-5.43212890625,0.02715219557285309,0.003642202354967594,-0.1862776279449463,0.9821150898933411
0,1651541260,314964609,-2.9761565334203257,1.1027961535313235,21.657739263714003,-0.00048828125,0.060546875,0.9775390625,4.69970703125,0.9765625,-5.43212890625,0.027312755584716797,0.004570284858345985,-0.18804962933063507,0.9817690849304199
0,1651541260,357630397,-3.108320907303484,1.380146763671975,21.87467973213195,-0.08056640625,0.056640625,1.04150390625,-2.5634765625,-3.5400390625,-3.662109375,0.028911583125591278,0.006675031967461109,-0.18997250497341156,0.9813408851623535
0,1651541260,395072921,-3.283187623877562,1.3620395052954481,22.006775590679997,-0.04248046875,0.0986328125,0.88427734375,2.62451171875,-0.48828125,-3.90625,0.030386323109269142,0.006195021327584982,-0.19110946357250214,0.9810787439346313
0,1651541260,431278500,-3.3274171541782143,1.619576163540716,22.23011423880295,-0.06884765625,0.07861328125,0.96044921875,0.48828125,1.28173828125,-7.38525390625,0.03120906837284565,0.008265606127679348,-0.19308193027973175,0.9806514382362366
0,1651541260,488746758,-3.2392003518490338,1.9247949059903717,22.64385977796564,-0.05615234375,0.06884765625,0.96240234375,2.8076171875,-0.79345703125,-6.40869140625,0.031005799770355225,0.010914808139204979,-0.19668081402778625,0.9799164533615112
0,1651541260,515393322,-3.2102947778381283,1.9607594805084854,22.827004470370365,-0.025390625,0.05126953125,1.02197265625,-9.21630859375,2.13623046875,-8.1787109375,0.030838025733828545,0.01122275460511446,-0.19825151562690735,0.9796017408370972
0,1651541260,574831494,-2.794218863507992,2.0715415203080956,23.28274372009759,-0.0458984375,0.04345703125,0.95849609375,-2.9296875,5.0048828125,-8.11767578125,0.027522815391421318,0.012780453078448772,-0.20212392508983612,0.9788897037506104
0,1651541260,616729180,-2.6645308600857867,2.2012107407100836,23.58523060032265,-0.017578125,0.02001953125,1.0634765625,-2.13623046875,0.54931640625,-6.103515625,0.0266798734664917,0.014046723954379559,-0.2047141045331955,0.9783573150634766
0,1651541260,660391716,-2.783414998344913,2.1061974732699174,23.880417715872262,0.00830078125,0.033203125,0.892578125,-5.55419921875,2.685546875,-7.62939453125,0.0275593139231205,0.012952042743563652,-0.2072315663099289,0.9778180122375488
0,1651541260,720937375,-2.5458674223142164,2.3407299476688763,24.370229364274092,-0.08544921875,0.0400390625,1.1357421875,-6.4697265625,-1.89208984375,-7.4462890625,0.02602016180753708,0.015272236429154873,-0.2114182710647583,0.9769299030303955
0,1651541260,751323248,-2.6524962802116354,2.2051193164626235,24.602551418702905,-0.00927734375,0.07568359375,0.90625,-6.77490234375,-5.2490234375,-7.62939453125,0.026708219200372696,0.013865039683878422,-0.2133907824754715,0.9765033721923828
0,1651541260,796844000,-2.2063918660823614,2.065412065858244,24.97494016244117,0.0078125,0.0126953125,1.0302734375,4.2724609375,1.220703125,-7.99560546875,0.022691039368510246,0.013431143015623093,-0.21648967266082764,0.9759288430213928
0,1651541260,830988699,-2.2819612925027943,2.226633345131106,25.27641958976366,-0.10205078125,0.0615234375,1.0478515625,1.5869140625,1.15966796875,-7.62939453125,0.023676712065935135,0.014599370770156384,-0.2190868854522705,0.9753087162971497
0,1651541260,874624902,-2.2994028208786563,2.3318780225045397,25.580091507809716,-0.078125,0.001953125,1.00830078125,5.06591796875,1.15966796875,-6.53076171875,0.024066554382443428,0.015398205257952213,-0.22168681025505066,0.9746993184089661
0,1651541260,913951527,-2.571261852204912,2.3737673592408166,25.867015802010904,-0.1279296875,0.03857421875,1.0703125,0.67138671875,-0.18310546875,-6.2255859375,0.026497656479477882,0.01516228448599577,-0.22416874766349792,0.9740720391273499
0,1651541260,964265993,-2.935871437365356,2.3321168656820785,26.07728488315704,-0.025390625,0.0966796875,1.0458984375,-1.77001953125,0.1220703125,-6.40869140625,0.02954152412712574,0.014040660113096237,-0.225995272397995,0.9735791683197021
0,1651541261,14320617,-3.066246088242559,2.269574317556153,26.46112443903883,-0.02294921875,0.07861328125,1.013671875,-7.26318359375,0.18310546875,-6.65283203125,0.0305706188082695,0.01314972061663866,-0.22925914824008942,0.9727963805198669
0,1651541261,35213354,-2.951726867749894,2.2339100579181084,26.62785447932072,-0.01611328125,0.04248046875,0.94384765625,4.69970703125,-2.62451171875,-6.40869140625,0.029546374455094337,0.013033007271587849,-0.23065471649169922,0.972499668598175
0,1651541261,94722271,-2.864603749461562,2.0895049178252294,27.09235686175307,-0.01611328125,0.0673828125,1.0458984375,-0.42724609375,-4.08935546875,-6.591796875,0.02856583707034588,0.01186683401465416,-0.23455992341041565,0.9716094732284546
0,1651541261,135697407,-2.8231229434150165,1.859327329352388,27.37080318364698,-0.015625,0.03515625,0.98828125,0.3662109375,-1.77001953125,-7.568359375,0.027768893167376518,0.009932178072631359,-0.236875981092453,0.9710922241210938
0,1651541261,193226074,-2.9555797347720163,2.038620008508634,27.834436424507444,0.0419921875,0.1171875,0.88525390625,1.8310546875,-4.82177734375,-6.40869140625,0.029305679723620415,0.011059526354074478,-0.24084697663784027,0.9700576066970825
0,1651541261,244445395,-2.8774082197212203,2.0730319956510392,28.1141480389451,-0.03466796875,0.08642578125,0.91259765625,4.08935546875,-5.67626953125,-5.859375,0.028744010254740715,0.01144507434219122,-0.24321259558200836,0.969479501247406
0,1651541261,297157054,-2.7747865484324827,1.7494442064805749,28.55869773126455,0.0263671875,0.06787109375,0.98291015625,5.55419921875,2.13623046875,-6.89697265625,0.027225730940699577,0.008818957954645157,-0.24690689146518707,0.9686165452003479
0,1651541261,358754559,-3.0837017038835848,1.7363727185130513,28.926732229406934,-0.0029296875,0.03955078125,0.86865234375,1.0986328125,-1.0986328125,-4.7607421875,0.02983442135155201,0.007947033271193504,-0.2500366270542145,0.967743992805481
0,1651541261,395050337,-3.3082443862911655,1.7617121867252699,29.143559999703573,0.03857421875,0.1240234375,0.93798828125,1.28173828125,-1.0986328125,-5.37109375,0.031800225377082825,0.007610943168401718,-0.25188761949539185,0.9672039151191711
0,1651541261,450053601,-3.4295496131676497,1.5630434348324609,29.443671681644762,0.0302734375,-0.0087890625,0.9833984375,-7.87353515625,8.9111328125,-5.18798828125,0.03240358456969261,0.005582244135439396,-0.2543838322162628,0.9665443301200867
0,1651541261,496223461,-3.2612336883378488,1.7229551320536787,29.64538082821358,0.05810546875,0.04345703125,1.06103515625,-6.28662109375,-0.18310546875,-4.82177734375,0.031350571662187576,0.0072498503141105175,-0.25610971450805664,0.9661120772361755
0,1651541261,555394401,-3.0925301502726494,1.7781381513489158,29.982081833538526,-0.0048828125,0.091796875,0.95751953125,0.18310546875,3.84521484375,-5.43212890625,0.03007480688393116,0.008003922179341316,-0.25894713401794434,0.9653900265693665
0,1651541261,594202494,-3.053721015408637,1.7100728616705057,30.16970029984961,-0.0068359375,0.04931640625,0.9140625,0.6103515625,-0.6103515625,-5.06591796875,0.029606781899929047,0.007469597738236189,-0.26051175594329834,0.9649877548217773
0,1651541261,661712367,-3.230034451426288,1.881139965353647,30.405389637539237,-0.02392578125,0.07470703125,1.08740234375,-6.53076171875,0.79345703125,-2.197265625,0.03149661049246788,0.008444818668067455,-0.2625415325164795,0.9643695950508118
0,1651541261,714811533,-3.3262632790953055,1.8993750763336998,30.42478395968749,-0.04736328125,0.04248046875,1.025390625,1.40380859375,5.06591796875,0.0,0.03234948590397835,0.00837236549705267,-0.26271551847457886,0.9642945528030396
0,1651541261,764437343,-3.12244018897837,1.6708373735918964,30.413807845691277,-0.00048828125,0.00634765625,1.0615234375,-4.45556640625,3.173828125,1.15966796875,0.030111342668533325,0.006918769329786301,-0.2625635266304016,0.9644200205802917
0,1651541261,810819723,-2.921678944600304,1.5434013048833852,30.268106250316567,-0.06884765625,0.01806640625,1.05859375,-4.08935546875,-3.90625,4.57763671875,0.028122423216700554,0.006341725122183561,-0.261301189661026,0.9648267030715942
0,1651541261,855347182,-2.715470624359153,1.2893551934691112,29.982194531659832,-0.03564453125,0.0390625,0.95068359375,-5.859375,2.86865234375,6.7138671875,0.02579645812511444,0.0047368197701871395,-0.25883749127388,0.9655647277832031
0,1651541261,915036590,-2.5675581821274727,1.2282235062936162,29.512796611139876,-0.08740234375,0.05029296875,1.08740234375,-1.3427734375,-1.953125,7.8125,0.024393416941165924,0.004655687138438225,-0.25486359000205994,0.9666580557823181
0,1651541261,955649849,-2.6652832481115456,1.0165362003993514,29.213924608533045,-0.0400390625,0.04931640625,1.064453125,2.3193359375,-0.6103515625,7.4462890625,0.024740807712078094,0.0027169424574822187,-0.2523084580898285,0.9673267006874084
0,1651541262,18569568,-2.470938326128472,0.561537812753663,28.698911269641158,0.0029296875,0.03955078125,1.06103515625,3.47900390625,-3.173828125,7.32421875,0.022102607414126396,-0.0005972571671009064,-0.2478771209716797,0.9685391187667847
0,1651541262,58224602,-2.7799984096560255,0.6464009922003674,28.442099571943263,-0.04638671875,0.1025390625,0.98046875,2.86865234375,-3.5400390625,6.7138671875,0.024899285286664963,-0.0004927229601889849,-0.24571998417377472,0.9690209031105042
0,1651541262,110816851,-2.8638093130837246,0.3449671350462507,27.97754084045026,0.015625,0.02001953125,1.076171875,4.638671875,0.54931640625,6.9580078125,0.02497512847185135,-0.003120358334854245,-0.24172811210155487,0.9700176119804382
0,1651541262,154621963,-3.127525478258856,0.2150532284533323,27.763684202442576,-0.02490234375,0.0283203125,0.9140625,-3.84521484375,3.0517578125,5.126953125,0.026942405849695206,-0.004726074170321226,-0.23988030850887299,0.9704171419143677
0,1651541262,197530858,-3.136791697085036,0.2525524611005832,27.4686029548251,-0.01025390625,0.02734375,1.13623046875,-7.75146484375,4.94384765625,7.080078125,0.02711065486073494,-0.004358106292784214,-0.23738880455493927,0.971026599407196
0,1651541262,235031071,-2.978667908600775,0.20661849177710867,27.12746061899235,0.076171875,0.0703125,0.91357421875,-3.60107421875,4.638671875,6.4697265625,0.025688646361231804,-0.0043433359824121,-0.2344927191734314,0.9717687368392944
0,1651541262,290829955,-2.7715368724914375,0.17920211244867748,26.77038174427867,-0.05419921875,0.0576171875,0.9775390625,-2.25830078125,-0.244140625,5.43212890625,0.023888813331723213,-0.004077564459294081,-0.23146528005599976,0.9725412726402283
0,1651541262,339197416,-2.6183743626655445,0.17462581900370283,26.504475649700904,0.00146484375,0.0224609375,0.9443359375,-1.953125,-4.33349609375,6.53076171875,0.02258843183517456,-0.003754620673134923,-0.2292121797800064,0.9731071591377258
0,1651541262,406958428,-2.481944535645713,-0.0740788777063162,26.100430686706922,-0.00732421875,0.0361328125,1.01904296875,-10.43701171875,2.62451171875,6.16455078125,0.02095206081867218,-0.005519953090697527,-0.2257382720708847,0.9739470481872559
0,1651541262,418368525,-2.3614700305270317,0.1309061916730611,25.97485424372165,-0.07421875,0.06103515625,1.07861328125,-0.67138671875,-1.220703125,7.080078125,0.02033579908311367,-0.0035180761478841305,-0.2247122973203659,0.9742066860198975
0,1651541262,474097433,-2.289812594953724,0.07090594134183453,25.568666308875578,0.01123046875,0.06103515625,0.9189453125,4.08935546875,-4.0283203125,6.40869140625,0.01962261274456978,-0.0038181317504495382,-0.22124966979026794,0.9750123620033264
0,1651541262,515058683,-1.9037769198103616,0.34410359636392013,25.31973664947988,-0.0107421875,0.0087890625,1.056640625,9.94873046875,1.64794921875,5.18798828125,0.016866890713572502,-0.0007114409236237407,-0.21918030083179474,0.9755383133888245
0,1651541262,554360414,-2.3082568804771086,0.5498893520110294,25.16281476084613,-0.08251953125,0.0576171875,1.03369140625,-7.32421875,-0.67138671875,3.7841796875,0.020703157410025597,0.00029508722946047783,-0.21787415444850922,0.9757573008537292
0,1651541262,594317206,-2.326462109379543,0.5036463566482514,24.964186029592987,-0.02197265625,0.04833984375,0.7900390625,8.11767578125,-1.03759765625,3.7841796875,0.02077052928507328,-9.730378951644525e-05,-0.21617496013641357,0.9761337041854858
0,1651541262,635014039,-2.60601833701358,0.44700872050321316,24.75998044888253,0.01708984375,0.04541015625,0.900390625,3.7841796875,2.99072265625,4.45556640625,0.023047015070915222,-0.0010660674888640642,-0.2144237905740738,0.9764682054519653
0,1651541262,695618827,-2.6381133959234697,0.5690322911813124,24.458922785741294,0.0283203125,0.009765625,1.05908203125,5.79833984375,3.72314453125,4.21142578125,0.023548783734440804,-2.4423810828011483e-05,-0.21188034117221832,0.9770118594169617
0,1651541262,734887635,-2.880784040718499,0.44672291977513046,24.321332040005974,0.0498046875,0.02783203125,1.0771484375,-2.99072265625,4.57763671875,2.8076171875,0.025393640622496605,-0.001485446235165,-0.21068136394023895,0.9772238731384277
0,1651541262,777473016,-3.2910058425996995,0.5114337861582708,24.24353106271765,-0.0205078125,0.07861328125,0.8740234375,4.2724609375,5.18798828125,0.18310546875,0.02901178039610386,-0.0016681301640346646,-0.2100265920162201,0.9772636890411377
0,1651541262,814985323,-3.374864557351589,0.8751486698982959,24.21428760778624,-0.087890625,0.07470703125,1.07763671875,5.31005859375,-3.41796875,1.953125,0.03039226494729519,0.0012878845445811749,-0.2098633050918579,0.9772573709487915
0,1651541262,849644811,-3.5103799927962847,0.6956951611314369,24.12238228986184,-0.02490234375,0.06298828125,0.93359375,2.197265625,-0.244140625,1.40380859375,0.03122035041451454,-0.0004657681565731764,-0.20903617143630981,0.9774093627929688
0,1651541262,891000479,-3.61528614891898,0.8012750513827305,24.05270069994937,-0.10986328125,0.06787109375,1.2001953125,-4.94384765625,4.150390625,1.708984375,0.0323072150349617,0.0002631019160617143,-0.2084684520959854,0.9774953722953796
0,1651541262,935989325,-3.6868558592501355,0.7630674000525023,23.991638808769455,0.00048828125,0.0166015625,0.9765625,-3.60107421875,5.7373046875,0.79345703125,0.032848458737134933,-0.00017554432270117104,-0.20793768763542175,0.9775903224945068
0,1651541262,991975835,-3.3216095723929993,0.8189474721690508,23.892126367656957,0.01123046875,0.0068359375,1.0244140625,-6.16455078125,2.44140625,1.64794921875,0.029832709580659866,0.0009899454889819026,-0.20710118114948273,0.9778640866279602
0,1651541263,34205962,-3.2934440066899824,0.8560034362113386,23.83180555200199,-0.01220703125,0.0771484375,1.03662109375,-11.04736328125,-3.5400390625,0.42724609375,0.029658479616045952,0.0013727068435400724,-0.20659476518630981,0.9779760837554932
0,1651541263,74298065,-2.9863134516029577,0.7630152131383752,23.772493896796888,0.0498046875,0.05859375,0.955078125,-4.7607421875,1.89208984375,2.5634765625,0.02686925418674946,0.0011465970892459154,-0.20606458187103271,0.978168785572052
0,1651541263,114084124,-2.8069789375380454,0.7270122188061802,23.70086058032909,-0.0126953125,0.07763671875,0.99462890625,2.13623046875,-3.96728515625,1.5869140625,0.025273023173213005,0.0011775231687352061,-0.205443874001503,0.9783418774604797
0,1651541263,162748798,-2.805122620187683,0.9243748571027827,23.600154563659128,-0.07177734375,0.0771484375,1.048828125,3.2958984375,-6.65283203125,3.84521484375,0.025607924908399582,0.0028884762432426214,-0.20462273061275482,0.9785016179084778
0,1651541263,194815659,-2.7210037179170983,0.8962428020153811,23.47155063932425,-0.025390625,0.044921875,0.9365234375,3.96728515625,-0.67138671875,3.23486328125,0.024836324155330658,0.0028263158164918423,-0.20351693034172058,0.9787523150444031
0,1651541263,235450708,-2.712087119399058,0.8488219191858933,23.39071364294986,-0.0205078125,0.05126953125,1.04443359375,-0.3662109375,1.46484375,1.0986328125,0.024674367159605026,0.002454493660479784,-0.20281726121902466,0.9789026379585266
0,1651541263,274688190,-2.838911992898559,1.0199333657377865,23.336985667391243,-0.07861328125,0.072265625,1.12158203125,2.62451171875,0.3662109375,1.220703125,0.026058318093419075,0.0037040316965430975,-0.20239464938640594,0.9789502620697021
0,1651541263,311505027,-3.031704754392747,0.7773183229514694,23.263866784778966,-0.01025390625,0.05126953125,0.97021484375,-1.28173828125,-2.0751953125,2.13623046875,0.02727685682475567,0.0013081568758934736,-0.20172441005706787,0.9790616035461426
0,1651541263,376483771,-3.256377210394558,0.7515948166809965,23.096091725554064,0.02978515625,0.03271484375,0.87841796875,0.0,3.23486328125,2.62451171875,0.02915014512836933,0.0007355411071330309,-0.20028704404830933,0.979303240776062
0,1651541263,409479324,-3.320782479173193,0.6867911024138262,22.9758445376687,0.0888671875,0.03466796875,0.8369140625,-0.244140625,-2.197265625,2.50244140625,0.02958739921450615,0.0001001709679258056,-0.19924433529376984,0.9795031547546387
0,1651541263,453928840,-3.264536938575196,0.7173349079693299,22.8754885681937,0.11572265625,0.1044921875,0.93798828125,2.38037109375,-2.5634765625,2.74658203125,0.029159223660826683,0.0004846076772082597,-0.19839347898960114,0.9796885848045349
0,1651541263,493965878,-2.9935679662751578,0.760626941445545,22.830409319671617,-0.01513671875,0.06787109375,0.962890625,-0.30517578125,1.5869140625,1.46484375,0.026916831731796265,0.0013344953767955303,-0.19801552593708038,0.9798283576965332
0,1651541263,529327428,-3.0012286637595618,1.0011317759434455,22.75842424846156,-0.0654296875,0.1103515625,1.04833984375,-4.21142578125,-2.44140625,2.0751953125,0.027395028620958328,0.00339506845921278,-0.19745077192783356,0.9799240827560425
0,1651541263,554212597,-2.9366861508672915,0.9210060797380855,22.712747358387098,-0.00146484375,0.05859375,1.03515625,2.44140625,-6.04248046875,3.2958984375,0.026704203337430954,0.002831660443916917,-0.19704177975654602,0.9800272583961487
0,1651541263,615644649,-3.1412624827836324,0.8621890796392843,22.53459894936024,0.0078125,0.0732421875,1.03369140625,5.92041015625,2.9296875,2.5634765625,0.02834973856806755,0.002020917134359479,-0.19550976157188416,0.9802898168563843
0,1651541263,654106190,-3.2580894534421154,0.9170301625891976,22.443759140946366,0.033203125,0.09765625,0.947265625,-2.25830078125,-5.4931640625,2.86865234375,0.029440676793456078,0.0023141028359532356,-0.194747194647789,0.9804088473320007
0,1651541263,694639074,-2.979673867399471,0.8623637297107957,22.340068331609107,0.0146484375,0.06689453125,0.93603515625,1.220703125,-5.126953125,3.23486328125,0.026963738724589348,0.002343878848478198,-0.19384227693080902,0.9806592464447021
0,1651541263,756477448,-2.82657176205905,0.7711464466235696,22.215002445264297,-0.01171875,0.04736328125,0.95751953125,5.31005859375,6.2255859375,1.52587890625,0.025497466325759888,0.0018499816069379449,-0.19275033473968506,0.9809147715568542
0,1651541263,791999363,-2.934841146017742,1.16272487363925,22.146377827125885,-0.04150390625,0.0537109375,1.03515625,1.0986328125,-4.94384765625,2.25830078125,0.027078593149781227,0.00503615802153945,-0.19224488735198975,0.9809603691101074
0,1651541263,834230257,-2.9503117379312322,0.8900286638919918,22.03172456417076,-0.001953125,0.029296875,1.01318359375,-2.5634765625,0.54931640625,2.25830078125,0.026751991361379623,0.0027023148722946644,-0.1912079155445099,0.9811812043190002
0,1651541263,874577179,-3.161265758985073,0.9696530348844434,21.934250934525508,-0.03369140625,0.0546875,0.98779296875,-6.4697265625,1.8310546875,2.38037109375,0.02868819423019886,0.0030565138440579176,-0.19039568305015564,0.98128342628479
0,1651541263,926008283,-3.290691013567644,0.8438937776171704,21.80372943458115,-0.0322265625,0.056640625,0.93603515625,1.953125,0.0,2.50244140625,0.029586007818579674,0.0017981873825192451,-0.18925192952156067,0.98148113489151
0,1651541263,959105553,-3.213279783948835,0.7440384396639939,21.7142727394742,0.09033203125,0.0771484375,0.85400390625,-2.44140625,-3.35693359375,2.13623046875,0.028757555410265923,0.0010931334691122174,-0.1884615570306778,0.9816588163375854
0,1651541263,993884994,-2.8708480364668345,0.5788404428294507,21.680126916266012,0.0908203125,0.0703125,1.0166015625,-0.54931640625,6.65283203125,-0.06103515625,0.02555263601243496,0.00024852738715708256,-0.18813098967075348,0.9818114638328552
0,1651541264,58656306,-2.716321836684466,1.0921200342500645,21.62439257263871,-0.03466796875,0.02978515625,1.134765625,-3.23486328125,-1.15966796875,1.89208984375,0.025067633017897606,0.004912485368549824,-0.18775105476379395,0.9818844795227051
0,1651541264,93751647,-2.7928987160074756,0.8112802112997414,21.58128212614488,0.02734375,0.0458984375,0.94091796875,-1.03759765625,1.953125,0.54931640625,0.02526378259062767,0.0023899453226476908,-0.18733006715774536,0.9819691777229309
0,1651541264,130290244,-2.7669309771133217,1.0576997228146086,21.486200770256428,-0.19384765625,0.07177734375,0.99462890625,1.52587890625,-4.69970703125,2.86865234375,0.025439530611038208,0.004565292038023472,-0.18656238913536072,0.9821031093597412
0,1651541264,193875870,-2.729003790425887,0.6918653459977638,21.356005411844937,0.0234375,0.0810546875,0.9345703125,-1.15966796875,-11.29150390625,1.5869140625,0.024518420919775963,0.0015192200662568212,-0.18537472188472748,0.9823607802391052
0,1651541264,234055547,-2.4797454281763804,0.2869862728318207,21.36477195964465,0.0322265625,0.04541015625,0.98046875,1.5869140625,-4.82177734375,0.244140625,0.02172723226249218,-0.0015504893381148577,-0.18537378311157227,0.9824267029762268
0,1651541264,276642016,-2.5134443008807543,0.2814174008220125,21.379750564494486,-0.08056640625,0.0400390625,0.97607421875,0.18310546875,-4.5166015625,0.244140625,0.022006923332810402,-0.001655625062994659,-0.18550072610378265,0.9823963046073914
0,1651541264,311408723,-2.484233716234725,0.23963206438801987,21.312688352128717,-0.02685546875,0.0693359375,1.0048828125,7.62939453125,1.28173828125,2.13623046875,0.021690042689442635,-0.0019538814667612314,-0.18491855263710022,0.9825125336647034
0,1651541264,354867635,-2.8304882352178176,0.22974002947913733,21.21918818503312,-0.00048828125,0.1015625,0.84375,3.35693359375,8.1787109375,2.0751953125,0.024644894525408745,-0.00257733091711998,-0.18410806357860565,0.9825937151908875
0,1651541264,393708940,-2.9544617181822495,0.5072742009537331,21.094045459060144,-0.01513671875,0.0947265625,1.080078125,3.47900390625,-3.662109375,3.662109375,0.026153910905122757,-0.00036817873478867114,-0.18309199810028076,0.9827477335929871
0,1651541264,429464780,-3.042288345955093,0.4700313672046221,20.97010826147568,-0.0029296875,0.05908203125,0.9931640625,4.45556640625,-9.09423828125,3.84521484375,0.026848556473851204,-0.0007988731376826763,-0.18202044069766998,0.9829278588294983
0,1651541264,471953340,-2.992498401339816,0.15383297560225184,20.85335300780348,-0.00439453125,0.05419921875,1.0048828125,4.45556640625,0.67138671875,2.62451171875,0.02592318132519722,-0.003405751660466194,-0.18094967305660248,0.9831447601318359
0,1651541264,534553673,-3.2290043735220855,-0.02673241992639771,20.619591491007085,-0.02490234375,0.03125,0.94970703125,-5.55419921875,0.6103515625,3.662109375,0.02767801657319069,-0.005271854344755411,-0.17889289557933807,0.9834651350975037
0,1651541264,582726820,-3.0972839619349783,0.11230381128277438,20.415838410329144,0.00390625,0.0419921875,0.9814453125,3.84521484375,1.15966796875,3.72314453125,0.02677142806351185,-0.003825325518846512,-0.17718200385570526,0.9838065505027771
0,1651541264,645926795,-3.2430425467005772,0.18591442749465464,20.26916863563958,0.0068359375,0.06982421875,1.115234375,0.18310546875,-5.31005859375,3.60107421875,0.028140923008322716,-0.003382724476978183,-0.17593544721603394,0.9839935898780823
0,1651541264,676357303,-3.0871648232361926,0.34654114680439485,20.13014355017856,-0.15087890625,0.033203125,0.99462890625,-7.32421875,-2.44140625,3.96728515625,0.027050970122218132,-0.0017312071286141872,-0.17478251457214355,0.9842339754104614
0,1651541264,736077586,-2.6875445421639097,-0.08237743748596268,19.981354709299,0.01806640625,0.05322265625,1.00830078125,5.67626953125,7.32421875,2.13623046875,0.02297079749405384,-0.0047762636095285416,-0.17342355847358704,0.9845678806304932
0,1651541264,750143982,-2.7726297027586395,0.19616095188950347,19.934902592753744,-0.08984375,0.04833984375,0.96142578125,2.50244140625,2.38037109375,2.3193359375,0.024124404415488243,-0.0025021019391715527,-0.17307855188846588,0.9846094250679016
0,1651541264,833990994,-3.030130395789059,0.1110226905760408,19.79289100707813,-0.0048828125,0.04345703125,0.8349609375,8.6669921875,-3.47900390625,0.42724609375,0.026212815195322037,-0.003590046428143978,-0.17183305323123932,0.9847707748413086
0,1651541264,873562198,-3.1930726692893527,0.27837092300877525,19.768172552471853,-0.11572265625,0.078125,1.20166015625,-5.18798828125,1.64794921875,1.5869140625,0.027864418923854828,-0.002390260109677911,-0.17165502905845642,0.984760046005249
0,1651541264,939273305,-3.4022344060162992,0.11710145888575299,19.689364122280956,0.01416015625,0.033203125,0.9140625,-1.46484375,-5.67626953125,0.91552734375,0.029423238709568977,-0.004069190938025713,-0.1709323674440384,0.9848349094390869
0,1651541264,971267631,-3.1757331668642172,0.21029554812916884,19.70050074572266,0.0,0.0419921875,1.03515625,0.0,-0.3662109375,0.18310546875,0.027615243569016457,-0.0029330095276236534,-0.171057790517807,0.9848695397377014
0,1651541265,36094552,-2.9333929324702877,0.2123306776975682,19.720231454687536,0.015625,-0.001953125,1.052734375,-14.2822265625,-10.25390625,1.15966796875,0.025534959509968758,-0.0025581514928489923,-0.1712336391210556,0.9848961234092712
0,1651541265,94762606,-2.7600216004376192,0.32443078392443225,19.599144153534258,-0.08740234375,0.0517578125,0.97216796875,-8.11767578125,5.31005859375,2.38037109375,0.024213645607233047,-0.0013099601492285728,-0.170219287276268,0.9851077795028687
0,1651541265,134589461,-2.7693853629028835,0.42586200126560414,19.45059607682294,0.1103515625,0.08740234375,1.01171875,-5.06591796875,2.38037109375,3.90625,0.024445248767733574,-0.00042018864769488573,-0.16896259784698486,0.9853192567825317
0,1651541265,193651741,-2.53989164712069,0.34395840148320445,19.25920222344814,0.025390625,0.03759765625,0.90185546875,-0.67138671875,0.6103515625,1.8310546875,0.022352518513798714,-0.0007487759576179087,-0.16730186343193054,0.9856520891189575
0,1651541265,234536008,-2.509386955070355,0.32785831158816214,19.182758746257353,0.11181640625,0.0390625,1.03857421875,5.7373046875,2.01416015625,2.685546875,0.022067202255129814,-0.0008280064212158322,-0.16664151847362518,0.9857702851295471
0,1651541265,298036460,-2.744098721935027,0.5101433606528145,18.95031374842348,0.0576171875,0.080078125,0.92138671875,9.21630859375,0.732421875,4.39453125,0.024350229650735855,0.0004481305368244648,-0.164676234126091,0.9860470294952393
0,1651541265,350570220,-3.1631124713819148,0.3642229857812505,18.73294468563512,-0.13720703125,0.078125,0.96630859375,1.220703125,0.06103515625,2.13623046875,0.02774883806705475,-0.0013569480506703258,-0.16277237236499786,0.986272394657135
0,1651541265,393625115,-3.295178661295754,0.2523851214659179,18.659475755827874,0.05078125,0.064453125,0.97021484375,-2.44140625,7.50732421875,0.06103515625,0.028728395700454712,-0.002488690195605159,-0.1621110737323761,0.9863511919975281
0,1651541265,462170580,-2.8495111658299495,0.5550408621099528,18.833362126812645,0.009765625,0.04052734375,0.9013671875,-1.953125,5.0048828125,-4.0283203125,0.025321008637547493,0.0007088296697475016,-0.16367949545383453,0.9861882925033569
0,1651541265,495136952,-2.7079883655668158,0.8077959610493886,18.954469918533434,-0.05078125,0.1279296875,0.857421875,-3.41796875,1.46484375,-3.60107421875,0.02446674183011055,0.003060506423935294,-0.1647699475288391,0.9860237836837769
0,1651541265,555066556,-2.38723350407632,1.051240925180715,19.136532025954708,-0.0361328125,0.0693359375,1.01953125,-1.40380859375,-0.48828125,-3.173828125,0.02206491492688656,0.0055816504172980785,-0.16636797785758972,0.985801100730896
0,1651541265,613657243,-2.4749645092007833,1.0814675004657834,19.324524445122847,-0.08056640625,0.03466796875,1.1748046875,-7.38525390625,-5.31005859375,-2.38037109375,0.02287275902926922,0.005676806438714266,-0.1679943948984146,0.9855062961578369
0,1651541265,653646286,-2.639614756880403,1.0596153774333854,19.4212689520742,-0.0029296875,0.0908203125,0.95458984375,2.0751953125,2.38037109375,-2.13623046875,0.024261221289634705,0.005226998124271631,-0.1688302904367447,0.985332727432251
0,1651541265,734031174,-2.5024666927806627,1.3008397296716645,19.68172797078888,0.0009765625,0.07421875,1.04931640625,6.591796875,4.45556640625,-3.2958984375,0.02345341071486473,0.007450162433087826,-0.17110471427440643,0.98494553565979
0,1651541265,775903134,-2.5718296116796693,1.1754956198398814,19.89431248606365,0.02099609375,0.0048828125,1.00830078125,5.37109375,-1.708984375,-4.2724609375,0.02387455478310585,0.0062248595058918,-0.17291395366191864,0.9846279621124268
0,1651541265,815010232,-2.891240420007554,1.0884231943617952,20.052144497404303,-0.017578125,0.05859375,0.904296875,0.30517578125,0.244140625,-3.84521484375,0.02649482898414135,0.004958185367286205,-0.17426897585391998,0.9843291640281677
0,1651541265,851113231,-2.8695492333074744,1.138062447928509,20.16014003346596,-0.01708984375,0.06689453125,1.00439453125,-8.30078125,1.40380859375,-3.11279296875,0.02638888731598854,0.005392737220972776,-0.17520560324192047,0.9841633439064026
0,1651541265,914940301,-2.9316241269186656,1.018178113842799,20.331260177836874,0.00439453125,0.0400390625,1.00244140625,1.03759765625,0.79345703125,-2.3193359375,0.02674555964767933,0.0042281923815608025,-0.17665331065654755,0.9839006662368774
0,1651541265,970157813,-3.0025970494710914,1.0210038911684802,20.58520661117795,-0.06396484375,0.0478515625,0.9130859375,5.92041015625,4.45556640625,-5.31005859375,0.027368398383259773,0.00408240407705307,-0.17883643507957458,0.9834896326065063
0,1651541266,11059230,-2.9715909788469954,1.3464949552398513,20.79065016367547,-0.04345703125,0.0400390625,1.12841796875,1.953125,-2.3193359375,-3.0517578125,0.027621224522590637,0.006875067017972469,-0.18066544830799103,0.9831326603889465
0,1651541266,56292239,-3.1301975763282117,1.078745883524945,20.882907236342124,0.02734375,0.05419921875,0.96728515625,2.8076171875,2.685546875,-2.50244140625,0.02856467105448246,0.004304670263081789,-0.18140792846679688,0.9829835891723633
0,1651541266,92528376,-3.358590777880387,1.184213609263462,20.974885978800103,-0.0380859375,0.11376953125,0.95849609375,-6.16455078125,3.60107421875,-2.197265625,0.03069414384663105,0.004823214374482632,-0.1822299063205719,0.9827650189399719
0,1651541266,154589443,-3.3822065838225295,1.08511204671822,21.169729077705764,-0.0830078125,0.04150390625,0.91064453125,-5.126953125,-2.62451171875,-3.41796875,0.030746236443519592,0.003883375320583582,-0.18387813866138458,0.9824603796005249
0,1651541266,199939463,-2.9887336864466696,0.9740087745842075,21.339715410674454,-0.00634765625,0.078125,1.0068359375,-5.7373046875,-1.0986328125,-3.72314453125,0.027200033888220787,0.003521647769957781,-0.18529783189296722,0.9822995662689209
0,1651541266,232766747,-2.9133836798533235,1.1256255272235622,21.500327309007307,-0.072265625,0.06298828125,0.99560546875,-2.685546875,-4.2724609375,-4.7607421875,0.02680559642612934,0.00490573700517416,-0.1867028921842575,0.9820384383201599
0,1651541266,277777638,-2.6276920213539112,0.8347675776689756,21.69446348333387,0.0029296875,0.02392578125,0.94775390625,0.1220703125,2.99072265625,-3.90625,0.023889193311333656,0.00283771357499063,-0.18830057978630066,0.981816828250885
0,1651541266,314142079,-2.4621352795053837,0.9876438598799628,21.84861573025918,-0.06689453125,0.01416015625,0.9833984375,-1.15966796875,-0.3662109375,-2.8076171875,0.02272738516330719,0.004389149136841297,-0.1896430402994156,0.9815802574157715
0,1651541266,352606564,-2.376205309887688,1.1737429292658326,21.9695117861157,-0.212890625,0.06591796875,1.23388671875,-9.765625,-2.685546875,-3.47900390625,0.022305140271782875,0.006102065090090036,-0.1907053291797638,0.981374979019165
0,1651541266,413582478,-2.313002154402975,1.0391075210070106,22.13844114731033,-0.04248046875,-0.01806640625,1.12890625,-5.7373046875,1.77001953125,-2.685546875,0.02154768817126751,0.005022344645112753,-0.19212737679481506,0.9811205863952637
0,1651541266,434192368,-2.514855588718008,0.9294061452001433,22.2195803795555,0.01123046875,0.10107421875,0.84326171875,6.40869140625,-4.08935546875,-3.0517578125,0.02309497259557247,0.0037282633129507303,-0.1928115338087082,0.9809569716453552
0,1651541266,494757929,-2.4458215861162196,0.663284152611581,22.44381719755431,-0.08544921875,0.03662109375,0.79833984375,3.47900390625,-3.662109375,-3.2958984375,0.022059986367821693,0.0015229310374706984,-0.1946830302476883,0.9806169271469116
0,1651541266,534774650,-2.365244350373698,0.5040565948852753,22.520690976662802,0.00244140625,0.0302734375,1.1357421875,2.25830078125,8.23974609375,-2.74658203125,0.021100426092743874,0.00028299473342485726,-0.19531294703483582,0.9805139899253845
0,1651541266,574098522,-2.749269815466961,0.5836914779657465,22.61702908735854,0.037109375,0.09228515625,0.89404296875,4.45556640625,-3.173828125,-2.44140625,0.0245220884680748,0.00028921422199346125,-0.1961527019739151,0.9802666902542114
0,1651541266,613614693,-2.9031663571852193,0.6970807290375975,22.747711096748393,0.060546875,0.0595703125,1.07080078125,7.32421875,-0.8544921875,-3.84521484375,0.026033515110611916,0.0009660901268944144,-0.19729416072368622,0.9799981117248535
0,1651541266,655472447,-2.9787784722879644,0.7819437484017432,22.897901833955096,0.015625,0.064453125,1.12744140625,-7.2021484375,1.40380859375,-2.99072265625,0.026828046888113022,0.0015265366528183222,-0.19859690964221954,0.9797128438949585
0,1651541266,693806099,-2.8468204981837872,1.0779405615331181,23.045717372877927,-0.072265625,0.03857421875,0.9638671875,-2.38037109375,2.8076171875,-2.685546875,0.02621738612651825,0.004252314101904631,-0.19991734623908997,0.9794527888298035
0,1651541266,736927514,-3.0530922111181726,1.3074302218904923,23.130042888370905,-0.02392578125,0.056640625,0.947265625,-0.6103515625,-3.23486328125,-2.3193359375,0.02838406339287758,0.005833177827298641,-0.20069344341754913,0.9792254567146301
0,1651541266,789967743,-2.8166874111129836,1.0756609858976265,23.236139631843297,0.0048828125,-0.001953125,1.044921875,-0.48828125,6.89697265625,-1.52587890625,0.025962945073843002,0.004242260474711657,-0.20154310762882233,0.9791263937950134
0,1651541266,834204100,-3.070246444662071,1.1559087717344003,23.306902099191923,-0.0478515625,0.076171875,0.90087890625,-5.126953125,-0.54931640625,-2.50244140625,0.028272967785596848,0.004464537836611271,-0.20217356085777283,0.9789313673973083
0,1651541266,868684472,-3.080910290947165,0.9372790054356409,23.449111760353468,-0.0234375,0.10888671875,0.91943359375,-3.7841796875,-3.41796875,-4.21142578125,0.027982477098703384,0.00254307989962399,-0.203342005610466,0.978704571723938
0,1651541266,914055257,-2.9054397429617755,0.7339305067443155,23.62361626345812,-0.0146484375,0.02099609375,1.037109375,8.30078125,3.60107421875,-5.18798828125,0.026125304400920868,0.0010776777053251863,-0.20478671789169312,0.9784573316574097
0,1651541266,952894323,-2.9931690405389464,0.8977282614381531,23.84429113780477,-0.07568359375,0.01513671875,1.005859375,1.03759765625,4.7607421875,-5.43212890625,0.027171028777956963,0.002267255913466215,-0.2067057341337204,0.9780232906341553
0,1651541266,994042783,-3.1233917197071173,1.0451483964410637,24.037476208289412,-0.05908203125,0.001953125,0.96826171875,-0.6103515625,1.0986328125,-3.96728515625,0.028553320094943047,0.003242500126361847,-0.20838868618011475,0.9776238203048706
0,1651541267,33631937,-3.117439209845451,1.025874456376934,24.156203679084452,0.0166015625,0.0224609375,1.05859375,3.41796875,7.87353515625,-3.47900390625,0.028470749035477638,0.003059377893805504,-0.20939715206623077,0.9774113893508911
0,1651541267,73469158,-3.416505445956806,1.243989290445298,24.26101463944559,-0.0791015625,0.13916015625,0.94482421875,-2.3193359375,2.8076171875,-2.8076171875,0.03142306208610535,0.004344609100371599,-0.21034976840019226,0.9771114587783813
0,1651541267,121257198,-3.627245383268849,1.2187904814412998,24.35090163647025,-0.0166015625,0.12109375,0.8544921875,9.33837890625,-0.91552734375,-1.708984375,0.033176787197589874,0.0037168480921536684,-0.2111174464225769,0.9768904447555542
0,1651541267,174063918,-3.478711607266109,0.9268664887676622,24.427679792930363,0.03759765625,0.06005859375,0.84912109375,2.62451171875,2.86865234375,-2.01416015625,0.03137519583106041,0.0014803658705204725,-0.21169641613960266,0.9768307209014893
0,1651541267,214341312,-3.408659266147754,0.9001277922709432,24.53033412106107,-0.0283203125,0.0400390625,0.974609375,2.44140625,-0.6103515625,-3.2958984375,0.030729971826076508,0.0013542893575504422,-0.2125641107559204,0.9766629338264465
0,1651541267,249013630,-3.5122303337311234,0.9538031540286058,24.622304325782583,0.0234375,0.05029296875,0.88720703125,4.33349609375,2.3193359375,-2.3193359375,0.0317133292555809,0.0015942242462188005,-0.21336223185062408,0.9764569997787476
0,1651541267,291213648,-3.3978163408403588,1.2437511943196997,24.723496993430906,-0.05908203125,0.07177734375,1.08251953125,0.67138671875,0.06103515625,-1.89208984375,0.031280677765607834,0.004250674042850733,-0.21429085731506348,0.9762595891952515
0,1651541267,354288998,-3.475600029212345,1.4253523706937046,24.85998295606798,-0.0244140625,0.08642578125,0.92138671875,4.39453125,-1.40380859375,-3.173828125,0.032288603484630585,0.005614089779555798,-0.21549925208091736,0.9759538769721985
0,1651541267,376837638,-3.5318058693357917,1.4646193416755193,24.947001273641234,-0.072265625,0.02734375,1.09326171875,-10.92529296875,-1.5869140625,-3.7841796875,0.032845307141542435,0.005817928817123175,-0.216252401471138,0.9757674932479858
0,1651541267,433547104,-3.0009221590205573,1.2555105389146404,25.195181319775525,-0.05224609375,0.06201171875,1.09912109375,-8.30078125,6.89697265625,-4.0283203125,0.027941828593611717,0.0049780891276896,-0.21829433739185333,0.9754701256752014
0,1651541267,473005713,-2.7860666058467585,1.3780132900516981,25.33562537703662,-0.0380859375,0.04541015625,1.04150390625,-4.39453125,-0.48828125,-3.72314453125,0.02635345049202442,0.006398070137947798,-0.21950270235538483,0.975234866142273
0,1651541267,513424467,-2.638870266260872,1.3685858147280823,25.47590892485222,0.04833984375,0.021484375,0.92041015625,-4.45556640625,4.94384765625,-3.47900390625,0.02509075589478016,0.006569067016243935,-0.2206864207983017,0.9749999046325684
0,1651541267,555021899,-2.4144533020227015,1.5770950549458813,25.598440811014957,0.04443359375,0.0546875,0.9912109375,4.57763671875,-3.2958984375,-2.197265625,0.023591231554746628,0.008750398643314838,-0.22174780070781708,0.9747794270515442
0,1651541267,593853125,-2.5565923134150172,1.3814625355825547,25.759670841467692,-0.0234375,0.06298828125,1.01708984375,3.90625,-4.08935546875,-4.5166015625,0.024432281032204628,0.0067766159772872925,-0.2230975478887558,0.9744663834571838
0,1651541267,634604160,-2.476207817073137,1.1691441842420043,25.969654762215978,0.02978515625,0.02001953125,1.05078125,1.64794921875,2.8076171875,-3.90625,0.02334560453891754,0.005084569100290537,-0.22484366595745087,0.9741019010543823
0,1651541267,673356419,-2.587034039658941,1.2435055209529908,26.11985062206456,-0.01171875,0.06298828125,1.03759765625,-3.173828125,3.662109375,-3.11279296875,0.02444048970937729,0.005467250477522612,-0.22613777220249176,0.9737733006477356
0,1651541267,713183913,-2.6372073286413853,1.268453000339874,26.272206529238158,-0.00341796875,0.0400390625,0.91748046875,2.38037109375,0.48828125,-2.9296875,0.02492337115108967,0.005547125358134508,-0.22743894159793854,0.9734575748443604
0,1651541267,778089194,-2.5148660474451745,1.6258189564421077,26.381691046538876,-0.0439453125,0.03857421875,1.0048828125,1.64794921875,-0.54931640625,-1.3427734375,0.02460016869008541,0.008802667260169983,-0.22842051088809967,0.9732118844985962
0,1651541267,825049458,-2.7819223885678537,1.5207374565568135,26.443232758507982,-0.01318359375,0.08642578125,1.04150390625,-5.67626953125,-0.67138671875,-2.685546875,0.02666325494647026,0.007363452576100826,-0.22894421219825745,0.9730465412139893
0,1651541267,853754150,-2.9313381127471714,1.481164621166229,26.543067926058768,-0.0166015625,0.072265625,0.9677734375,1.8310546875,-4.2724609375,-1.708984375,0.027858998626470566,0.0067045846953988075,-0.2297937273979187,0.9728174209594727
0,1651541267,893468314,-2.720145675402615,1.3729830691713953,26.595863580795672,0.01904296875,0.0400390625,0.9296875,-4.0283203125,3.90625,-1.89208984375,0.02585252746939659,0.006197591312229633,-0.23021003603935242,0.9727778434753418
0,1651541267,929871502,-2.7292163800638036,1.6227972380646116,26.682960445544385,-0.06298828125,0.1025390625,1.1416015625,-3.96728515625,0.1220703125,-2.62451171875,0.02643642947077751,0.008280236274003983,-0.23099377751350403,0.9725608229637146
0,1651541267,970116804,-2.699531524157282,1.367493624791115,26.851795891637927,0.00244140625,0.0283203125,0.8984375,3.84521484375,-3.11279296875,-3.7841796875,0.0256802998483181,0.006135056260973215,-0.23238001763820648,0.9722667336463928
0,1651541268,10765227,-2.5961856393731115,1.603335681241718,26.97961775931284,-0.06201171875,0.02978515625,1.1044921875,-1.52587890625,12.87841796875,-3.60107421875,0.02528984844684601,0.008317748084664345,-0.23349790275096893,0.9719927906990051
0,1651541268,55299629,-2.8114659449359203,1.6966734179011158,27.111008400829082,-0.03076171875,0.13427734375,0.96923828125,-1.46484375,-5.859375,-3.60107421875,0.02731543406844139,0.008639552630484104,-0.2346440851688385,0.9716591835021973
0,1651541268,113261397,-2.8905597489680797,1.5318057781068193,27.358377361999434,-0.01904296875,0.0380859375,1.07666015625,-8.9111328125,-0.06103515625,-4.39453125,0.027664724737405777,0.007019690237939358,-0.23671647906303406,0.9711594581604004
0,1651541268,137157785,-2.706889985770913,1.481017131768839,27.438362292274867,0.0107421875,0.0126953125,0.96533203125,-2.01416015625,2.5634765625,-4.08935546875,0.026008307933807373,0.006950426381081343,-0.2373739331960678,0.9710453748703003
0,1651541268,194140083,-2.747290341268127,1.6478461030719873,27.669535167375827,-0.00634765625,0.0634765625,1.169921875,-0.91552734375,0.0,-3.11279296875,0.02671198919415474,0.008226761594414711,-0.23936396837234497,0.9705276489257812
0,1651541268,234589329,-2.939546506025646,1.7332831251306784,27.761590749461966,0.00439453125,0.01416015625,0.955078125,-1.8310546875,0.0,-1.220703125,0.02852504514157772,0.008525945246219635,-0.240172877907753,0.9702736139297485
0,1651541268,283209177,-2.9337128841442204,1.8256927031148948,27.812103413468797,-0.0712890625,0.0673828125,1.02001953125,-1.03759765625,3.173828125,-1.0986328125,0.028672827407717705,0.009308135136961937,-0.24061717092990875,0.9701518416404724
0,1651541268,308578065,-3.188815753889142,1.820928646168811,27.845127378105808,-0.00341796875,0.0791015625,1.044921875,-0.06103515625,0.42724609375,-1.89208984375,0.030825048685073853,0.008723228238523006,-0.2409159243106842,0.9700170755386353
0,1651541268,355029269,-3.3067780300537284,1.5389425787375421,27.973335151468824,0.03662109375,0.06689453125,1.12060546875,-1.52587890625,-5.126953125,-2.62451171875,0.031239598989486694,0.006052776705473661,-0.241949662566185,0.9697669148445129
0,1651541268,413967627,-3.159938354408563,1.4773183708898656,28.115881199446992,-0.08642578125,0.07080078125,1.06201171875,-4.150390625,8.7890625,-2.50244140625,0.0298744086176157,0.00580401998013258,-0.2431352585554123,0.9695149660110474
0,1651541268,454080048,-3.1715686724612135,1.5039325231559377,28.23699582135695,-0.0576171875,0.04345703125,0.87451171875,-0.42724609375,-4.45556640625,-4.638671875,0.03003545105457306,0.0059728119522333145,-0.24416592717170715,0.9692497849464417
0,1651541268,496589758,-3.110594506523452,1.4628380496843212,28.39378281375459,0.041015625,0.015625,1.0048828125,2.01416015625,6.04248046875,-3.41796875,0.02944023534655571,0.005714800208806992,-0.24548031389713287,0.9689376950263977
0,1651541268,533713407,-3.0340035399352794,1.6991639823489375,28.520025200183937,-0.08740234375,0.091796875,0.91064453125,7.26318359375,-5.9814453125,-3.11279296875,0.029306115582585335,0.007845230400562286,-0.24658970534801483,0.9686449766159058
0,1651541268,586300089,-3.458544619968,1.7537650481825484,28.736593423292117,-0.12451171875,0.0703125,1.09375,-1.03759765625,-8.11767578125,-4.08935546875,0.03302556276321411,0.007330800406634808,-0.24845920503139496,0.9680514931678772
0,1651541268,627859926,-3.4744128569572323,1.2220426119815777,28.886253113290852,0.03515625,0.06640625,0.80615234375,-1.77001953125,-1.40380859375,-3.41796875,0.03201417252421379,0.002761569805443287,-0.24960309267044067,0.9678150415420532
0,1651541268,658332956,-3.3894536279753247,1.2637205330187014,28.994395498419664,-0.0234375,0.08740234375,1.064453125,3.11279296875,6.8359375,-4.2724609375,0.03139027580618858,0.00326907099224627,-0.2505236864089966,0.9675959944725037
0,1651541268,714098020,-3.5933223949823345,1.5804607373811108,29.226167722620293,-0.0947265625,0.037109375,0.9443359375,6.591796875,-5.4931640625,-2.74658203125,0.033813223242759705,0.005429799202829599,-0.2525607645511627,0.9669747948646545
0,1651541268,748983145,-3.4625475377084505,1.5844367612517045,29.339077579789773,0.01416015625,0.021484375,1.05615234375,0.8544921875,5.43212890625,-2.13623046875,0.0327240489423275,0.00571934599429369,-0.25350794196128845,0.9667627811431885
0,1651541268,789343217,-3.563720355119499,1.55081152652432,29.449231455629153,-0.0263671875,0.0654296875,1.01513671875,-5.7373046875,-3.23486328125,-2.99072265625,0.03350843861699104,0.005179574713110924,-0.2544342875480652,0.9664954543113708
0,1651541268,829414747,-3.5599468890464787,1.5929413072637224,29.57385850231979,-0.10546875,0.087890625,1.08544921875,-9.1552734375,-3.41796875,-2.8076171875,0.033575862646102905,0.005506852176040411,-0.2554948627948761,0.9662115573883057
0,1651541268,896045875,-3.1977248818877775,1.3873751315262586,29.67197758484161,-0.0029296875,0.06396484375,1.0546875,3.11279296875,6.4697265625,-0.732421875,0.030068431049585342,0.00455485749989748,-0.25626108050346375,0.9661291241645813
0,1651541268,933519499,-3.212566029180569,1.382226556274244,29.747317986481434,0.02392578125,0.06298828125,1.09130859375,-1.708984375,3.96728515625,-3.173828125,0.03018501214683056,0.004458408337086439,-0.2568957209587097,0.9659573435783386
0,1651541268,977384859,-3.288295324716262,1.3629293508782538,29.857837277441412,0.0576171875,0.064453125,0.86328125,-1.3427734375,-0.6103515625,-1.8310546875,0.030784185975790024,0.00409625144675374,-0.2578260004520416,0.9656921029090881
0,1651541269,18122008,-3.1649194833042062,1.5854777247698968,29.911082017116243,-0.083984375,0.06689453125,1.06396484375,2.197265625,-0.732421875,-0.1220703125,0.030246775597333908,0.006235640496015549,-0.25831544399261475,0.965566873550415
0,1651541269,54701112,-3.4942818772527993,1.3731159376950932,29.96206254908122,-0.01171875,0.11572265625,0.88671875,8.11767578125,-3.47900390625,-0.79345703125,0.0325462631881237,0.0036890399642288685,-0.25871342420578003,0.9653986096382141
0,1651541269,94170504,-3.4233599676757374,1.1261772784424522,29.944737774251482,0.0322265625,0.06494140625,1.1005859375,1.220703125,-1.28173828125,1.77001953125,0.03139239922165871,0.0017730756662786007,-0.2585090398788452,0.9654970169067383
0,1651541269,135470499,-3.2766161281223636,0.8076003935235441,29.820855218180377,0.017578125,0.076171875,0.89990234375,0.244140625,5.67626953125,2.9296875,0.029439305886626244,-0.0005487624439410865,-0.2573918104171753,0.9658583998680115
0,1651541269,193364307,-3.2159260553653923,0.9996257192314577,29.632567393330635,-0.1044921875,0.0400390625,1.04541015625,2.197265625,-2.86865234375,2.86865234375,0.02935638092458248,0.0012545173522084951,-0.2558467388153076,0.9662706851959229
0,1651541269,231491647,-3.1747681892005417,0.6868743453443358,29.50127066691548,0.005859375,0.06005859375,1.01953125,2.50244140625,8.97216796875,2.9296875,0.02831367589533329,-0.0012587306555360556,-0.2546709477901459,0.9666123986244202
0,1651541269,273457772,-3.1651739078507894,0.7576962033222278,29.404196603336672,0.048828125,0.06494140625,0.8955078125,-3.90625,-5.67626953125,1.953125,0.028390472754836082,-0.0006159021286293864,-0.25386762619018555,0.96682208776474
0,1651541269,313193373,-3.32992938313231,0.7326337312973651,29.346980108659476,-0.029296875,0.142578125,0.7685546875,-6.89697265625,1.953125,1.3427734375,0.029725652188062668,-0.0011775281745940447,-0.2533779442310333,0.9669098258018494
0,1651541269,351793394,-2.9205976402773266,1.0280834889649042,29.230767855026293,-0.1171875,0.01025390625,1.01025390625,0.91552734375,-1.5869140625,2.5634765625,0.026921698823571205,0.0022483086213469505,-0.2524583041667938,0.9672306180000305
0,1651541269,394741069,-3.0200966344548985,0.865667033308996,29.111113186051426,0.03076171875,0.07275390625,0.90771484375,0.48828125,3.47900390625,2.74658203125,0.02740361914038658,0.0006866739713586867,-0.2514168620109558,0.9674907326698303
0,1651541269,456413158,-3.0584231737653673,0.8946755404051276,28.980369704959042,-0.109375,0.07958984375,0.84716796875,6.28662109375,-8.48388671875,2.685546875,0.02778976783156395,0.0008792325388640165,-0.25031912326812744,0.967764139175415
0,1651541269,494073704,-2.7748115213116353,0.6161926663269877,28.852873978816998,-0.095703125,0.0302734375,1.08740234375,-2.38037109375,0.06103515625,2.74658203125,0.024787915870547295,-0.000825931376311928,-0.2491862177848816,0.9681379795074463
0,1651541269,533664810,-2.8136784993401815,0.30243202526829055,28.760635689170563,0.10693359375,0.06396484375,1.08154296875,2.8076171875,-1.46484375,1.52587890625,0.02443746104836464,-0.0035417675971984863,-0.24834416806697845,0.9683571457862854
0,1651541269,573271914,-2.8862319703552304,0.3035074598974502,28.74195853688516,-0.03662109375,0.02978515625,1.10595703125,-1.708984375,1.64794921875,-0.30517578125,0.02505350112915039,-0.003685834351927042,-0.24818426370620728,0.9683818221092224
0,1651541269,613070355,-2.8831980857032753,0.10147642065367696,28.745301914483882,0.021484375,0.0546875,0.91943359375,-4.21142578125,5.4931640625,-0.18310546875,0.024590332061052322,-0.0053873430006206036,-0.24817043542861938,0.9683892130851746
0,1651541269,651550806,-2.8579061086501296,0.6518831261438017,28.704662288922307,-0.015625,0.07275390625,1.16015625,-8.056640625,2.86865234375,0.9765625,0.025568360462784767,-0.0006720061064697802,-0.2479402869939804,0.968437671661377
0,1651541269,714019026,-2.8546833265789413,0.7756076273686456,28.661379380151935,0.06298828125,0.02587890625,0.81884765625,-1.708984375,-5.06591796875,1.953125,0.025808367878198624,0.0003904147306457162,-0.24759887158870697,0.9685187935829163
0,1651541269,756262975,-2.5642039189147616,0.8091731513016452,28.57324944929126,-0.08544921875,0.01708984375,1.18408203125,-3.60107421875,-5.9814453125,2.74658203125,0.023424610495567322,0.0013198020169511437,-0.24685797095298767,0.9687676429748535
0,1651541269,793664512,-2.9973467684334674,0.42196537834411185,28.46692047938709,0.04833984375,0.142578125,0.84423828125,-0.1220703125,2.5634765625,2.13623046875,0.026255836710333824,-0.002862409921362996,-0.2458810657262802,0.9689401388168335
0,1651541269,829285999,-2.620503033809061,0.5719928046605427,28.3992469650906,0.0478515625,0.046875,1.02734375,5.9814453125,-2.25830078125,2.13623046875,0.023391414433717728,-0.0007712481310591102,-0.24534446001052856,0.9691534638404846
0,1651541269,893312278,-2.5225845880941122,0.49611447226272565,28.297760599307967,0.0029296875,0.10205078125,1.080078125,-1.5869140625,-1.40380859375,0.42724609375,0.022401997819542885,-0.0011835471959784627,-0.24447320401668549,0.9693965911865234
0,1651541269,938181650,-2.542462999899788,0.4947823719311616,28.307635345300515,-0.03662109375,0.0849609375,0.931640625,5.37109375,-0.79345703125,0.244140625,0.02256721816956997,-0.001239172532223165,-0.24455632269382477,0.9693716168403625
0,1651541269,979538630,-2.0670587817784516,0.7180148319568634,28.230496896361682,-0.017578125,0.00732421875,1.11474609375,-5.126953125,6.8359375,3.173828125,0.019020382314920425,0.0016768708592280746,-0.24393826723098755,0.9696027636528015
0,1651541270,11202914,-2.049620881940586,0.8159959766739592,28.096789113169514,-0.01318359375,0.0615234375,0.9287109375,-5.92041015625,-6.53076171875,3.96728515625,0.01907823607325554,0.0025653589982539415,-0.24281993508338928,0.9698804020881653
0,1651541270,55746211,-1.9160193935673748,0.7042550423479026,27.99872125706647,-0.0400390625,0.05322265625,1.16162109375,-12.6953125,3.7841796875,0.91552734375,0.01770925521850586,0.0019177834037691355,-0.2419724017381668,0.9701195955276489
0,1651541270,96281879,-1.4139814931078085,0.5345690776201321,27.95889271646883,-0.00390625,0.00634765625,0.8251953125,-3.7841796875,-1.15966796875,0.91552734375,0.013100271113216877,0.0015457214321941137,-0.2416086494922638,0.9702841639518738
0,1651541270,139456024,-1.4217912808151891,0.8735598505034745,27.869675077982833,-0.10107421875,0.02880859375,0.8720703125,27.52685546875,-7.87353515625,2.9296875,0.013877318240702152,0.004410475492477417,-0.240884467959404,0.9704446196556091
0,1651541270,174131574,-1.8509819054036902,0.6976287983576381,27.789107874080656,0.00048828125,-0.0244140625,1.21728515625,5.0048828125,4.7607421875,1.28173828125,0.017140982672572136,0.0020303751807659864,-0.24019542336463928,0.9705712199211121
0,1651541270,213959036,-2.4814169035323297,0.7667479115197872,27.71033017974102,-0.083984375,0.0126953125,0.7587890625,-1.28173828125,1.89208984375,1.5869140625,0.02262420766055584,0.0013098480412736535,-0.23954753577709198,0.9706200957298279
0,1651541270,253568091,-3.412067743987002,0.9620466587482822,27.616981984354457,-0.103515625,0.12890625,0.80078125,23.193359375,-5.18798828125,2.50244140625,0.03091294877231121,0.0010435587028041482,-0.238805890083313,0.9705746173858643
0,1651541270,318786551,-4.720707869855938,0.903561776597873,27.53846895984516,-0.09619140625,0.07080078125,1.16357421875,22.216796875,-9.33837890625,1.15966796875,0.041874635964632034,-0.002150163520127535,-0.23811805248260498,0.9703307151794434
0,1651541270,351593454,-5.6840590947356935,0.705312974617314,27.520913666130934,-0.0205078125,0.060546875,0.87841796875,17.9443359375,-0.6103515625,0.54931640625,0.04962068051099777,-0.005822641309350729,-0.2378625124692917,0.9700130820274353
0,1651541270,420382507,-5.967914072678607,0.7985551419891844,27.527496260943536,-0.05029296875,0.11572265625,1.2529296875,10.1318359375,8.056640625,0.67138671875,0.05221603438258171,-0.005625518038868904,-0.23794296383857727,0.9698582291603088
0,1651541270,471406587,-6.3182609421915945,0.5838726914221634,27.517986930071583,-0.02587890625,0.1025390625,0.892578125,5.67626953125,-0.9765625,0.244140625,0.05473722517490387,-0.008165435865521431,-0.23774658143520355,0.9697492718696594
0,1651541270,511192390,-6.4926997047254895,0.6801810267619877,27.50486613667599,-0.03466796875,0.11181640625,1.146484375,-1.89208984375,-1.40380859375,-0.30517578125,0.056413568556308746,-0.007705804891884327,-0.23766794800758362,0.9696763753890991
0,1651541270,568180383,-6.527057263797945,0.6097034530069466,27.58384532159614,0.09228515625,0.11181640625,0.92529296875,6.65283203125,0.732421875,-0.42724609375,0.05655273050069809,-0.008412511087954044,-0.23830069601535797,0.969507098197937
0,1651541270,633511278,-6.589330659781891,0.4644137500556982,27.62142672995684,0.05517578125,0.12353515625,1.0322265625,-4.150390625,-3.84521484375,-0.6103515625,0.056774966418743134,-0.009790005162358284,-0.23854470252990723,0.9694210886955261
0,1651541270,673309464,-6.708292491442826,0.47841296981157977,27.653262241678274,-0.01904296875,0.126953125,0.82421875,5.2490234375,-7.8125,0.244140625,0.05780765041708946,-0.00993526354432106,-0.23881052434444427,0.9692931175231934
0,1651541270,735131967,-6.776085107162964,0.47506607039656773,27.53247888394306,-0.01123046875,0.15966796875,0.95166015625,2.8076171875,-2.74658203125,3.23486328125,0.0583847351372242,-0.010043323040008545,-0.23778119683265686,0.9695104360580444
0,1651541270,793175806,-7.091773889280015,0.3087646244850973,27.436600103469004,-0.08935546875,0.14306640625,1.1025390625,-1.3427734375,-3.5400390625,1.3427734375,0.06072114035487175,-0.01205447781831026,-0.23685547709465027,0.9695706367492676
0,1651541270,832972488,-7.072555444502892,0.08283951579156991,27.394995713687166,-0.00732421875,0.076171875,0.80859375,0.18310546875,2.3193359375,1.0986328125,0.06009712070226669,-0.013904660008847713,-0.23638808727264404,0.9696988463401794
0,1651541270,893571229,-7.023803688641456,0.127376091109862,27.227341890320034,0.0517578125,0.11279296875,1.015625,0.6103515625,2.01416015625,1.77001953125,0.059795983135700226,-0.013339721597731113,-0.23499803245067596,0.9700632095336914
0,1651541270,956865721,-7.276586428502689,0.2054474078191424,27.055041830769998,0.0263671875,0.10546875,1.14794921875,0.732421875,11.1083984375,3.173828125,0.06211549788713455,-0.013103863224387169,-0.23355118930339813,0.9702699780464172
0,1651541271,11165835,-7.368842647395698,0.13132108564449974,26.843107891013673,0.017578125,0.17919921875,0.94677734375,-1.03759765625,3.90625,1.77001953125,0.06277132779359818,-0.013803460635244846,-0.23170554637908936,0.9706604480743408
0,1651541271,59071686,-7.020810785124521,0.4025508324326151,26.77468647100307,-0.052734375,0.10498046875,1.03515625,-9.21630859375,-2.13623046875,2.25830078125,0.06037747114896774,-0.010765587911009789,-0.23130638897418976,0.9709460139274597
0,1651541271,112887696,-6.402973217146324,0.2916647923307208,26.637549932847552,0.0537109375,0.130859375,1.13916015625,-17.08984375,2.74658203125,2.0751953125,0.054930560290813446,-0.01039251871407032,-0.2301466464996338,0.971548855304718
0,1651541271,162255776,-5.958509755965146,0.4428056462035695,26.612659015964734,-0.09423828125,0.078125,0.9443359375,-12.75634765625,-4.57763671875,0.79345703125,0.05146683752536774,-0.008206813596189022,-0.23003989458084106,0.9717847108840942
0,1651541271,214128877,-5.281787419604976,0.5048606362166327,26.513740801310025,-0.02001953125,0.16162109375,1.16552734375,-14.70947265625,-0.54931640625,1.77001953125,0.045856934040784836,-0.006282140035182238,-0.22926892340183258,0.9722620248794556
0,1651541271,268871884,-5.028950465117206,0.1985200885566553,26.50731188575375,0.0146484375,0.0771484375,1.0234375,-13.427734375,2.13623046875,-1.28173828125,0.04309997335076332,-0.008373492397367954,-0.22911539673805237,0.9724085927009583
0,1651541271,313679631,-4.7034902436188055,0.33053379807167665,26.555876238299835,-0.060546875,0.0146484375,0.96728515625,-4.5166015625,-4.2724609375,-0.6103515625,0.040598977357149124,-0.006619507446885109,-0.22959578037261963,0.9724165201187134
0,1651541271,374124310,-4.235534773674192,0.3218544152251623,26.584388862990053,0.01416015625,0.07373046875,1.11572265625,-7.01904296875,0.30517578125,-0.30517578125,0.036608804017305374,-0.005764637608081102,-0.22986021637916565,0.9725177884101868
0,1651541271,416249969,-4.158585862484828,0.18274995549546277,26.604222024792477,0.06298828125,0.0625,0.89013671875,-2.0751953125,-1.52587890625,0.79345703125,0.03567574545741081,-0.006797094363719225,-0.22999010980129242,0.9725151062011719
0,1651541271,473474383,-3.8674447802448033,0.37350555970884164,26.495084139592134,-0.0224609375,0.07763671875,0.95361328125,-5.79833984375,-4.82177734375,1.46484375,0.033591799437999725,-0.004561651032418013,-0.2291339635848999,0.9728044271469116
0,1651541271,534648098,-3.8172283756932233,0.3479458712567432,26.44302614528559,0.01806640625,0.0146484375,1.029296875,-1.220703125,-5.06591796875,1.64794921875,0.03311655670404434,-0.0046631949953734875,-0.22868691384792328,0.9729254245758057
0,1651541271,595567698,-3.623675755653871,0.678624650765724,26.286365511387594,-0.00146484375,0.1005859375,1.06884765625,-6.591796875,0.8544921875,2.86865234375,0.03213442862033844,-0.0014251053798943758,-0.22744996845722198,0.973258376121521
0,1651541271,651717677,-3.6140460426977996,0.6938301459620533,26.149855643088426,-0.07080078125,0.037109375,0.84326171875,-2.13623046875,-4.45556640625,3.23486328125,0.03208427131175995,-0.0012386153684929013,-0.2262943983078003,0.9735296964645386
0,1651541271,694410374,-3.304064097075706,0.6420401832195787,25.99924655679506,0.017578125,0.0673828125,1.01513671875,0.30517578125,4.45556640625,2.5634765625,0.029349911957979202,-0.0010279517155140638,-0.22500503063201904,0.9739148616790771
0,1651541271,754228182,-3.353586170209472,0.5515820116255761,25.88076497281014,0.03564453125,0.1201171875,0.943359375,-6.77490234375,0.1220703125,0.91552734375,0.02959536388516426,-0.0018634423613548279,-0.22397585213184357,0.9741435050964355
0,1651541271,818922959,-2.9528453112264836,0.42264346138222075,25.787626805740555,0.0,0.04052734375,0.91259765625,-2.62451171875,4.5166015625,1.03759765625,0.025938482955098152,-0.0021553582046180964,-0.22316187620162964,0.9744338989257812
0,1651541271,876567772,-2.915772325072124,0.6418558748336941,25.774297691575274,-0.119140625,0.04736328125,0.9228515625,-0.54931640625,-1.953125,-0.67138671875,0.026049768552184105,-0.00021595149883069098,-0.22309470176696777,0.974448561668396
0,1651541271,934006562,-2.883925927736705,0.7689301035987532,25.757920605492878,-0.06884765625,0.05322265625,1.08837890625,-1.46484375,0.0,0.1220703125,0.026025895029306412,0.000930445094127208,-0.22298115491867065,0.9744749069213867
0,1651541271,974799639,-3.0722267726345516,0.6883911275877546,25.738777292796623,-0.0263671875,0.06982421875,0.94482421875,2.0751953125,-2.13623046875,-0.3662109375,0.027470692992210388,-0.00011629885557340458,-0.22280223667621613,0.9744765758514404
0,1651541272,33641785,-3.036009267673736,0.5387342123533705,25.797832815907846,0.05078125,0.03466796875,0.88916015625,2.8076171875,2.9296875,-0.79345703125,0.026871418580412865,-0.0013325023464858532,-0.22327229380607605,0.9743847250938416
0,1651541272,69373340,-2.9098385982306754,0.5862881237891149,25.83737278101305,-0.07763671875,0.06396484375,0.94921875,1.3427734375,2.9296875,-1.28173828125,0.025890879333019257,-0.0006912107928656042,-0.22361962497234344,0.974332332611084
0,1651541272,108789074,-2.824940200621063,0.5246254961273571,25.881531661544475,-0.017578125,0.025390625,1.04345703125,0.30517578125,-2.62451171875,-1.03759765625,0.025048401206731796,-0.0010595244821161032,-0.22398318350315094,0.9742705225944519
0,1651541272,169516824,-2.8051031968372304,0.6365895855402027,25.905522701004145,-0.0205078125,0.009765625,1.0341796875,3.41796875,1.40380859375,0.3662109375,0.025098349899053574,-7.401957554975525e-05,-0.22420953214168549,0.9742177128791809
0,1651541272,234945723,-3.084553556539132,0.5093516456784748,25.89691837019722,0.0029296875,0.12353515625,0.94384765625,5.92041015625,-5.615234375,0.1220703125,0.027225546538829803,-0.0017004827968776226,-0.22410766780376434,0.9741826057434082
0,1651541272,273993660,-2.9175524431245585,0.506969990731403,25.90794229551762,0.02978515625,0.02978515625,1.015625,7.568359375,-3.11279296875,1.46484375,0.025800995528697968,-0.0013966057449579239,-0.22420310974121094,0.9741999506950378
0,1651541272,321732682,-2.8612736053543575,0.541170668896361,25.85778309380034,-0.04443359375,0.0419921875,0.9638671875,-1.64794921875,5.859375,0.732421875,0.025389820337295532,-0.0009846045868471265,-0.22378426790237427,0.9743075370788574
0,1651541272,374360542,-2.936062255775293,0.7595972904281656,25.798621702756982,-0.0537109375,0.06005859375,0.9052734375,3.7841796875,-0.91552734375,1.0986328125,0.026451384648680687,0.0007402284536510706,-0.22332574427127838,0.9743847250938416
0,1651541272,409406481,-2.92992853245721,0.805004067865293,25.69176680828672,-0.0146484375,0.05615234375,1.08740234375,-1.46484375,4.21142578125,3.11279296875,0.02648651972413063,0.0011630092049017549,-0.22242631018161774,0.974588930606842
0,1651541272,473854022,-3.113918033884898,0.9043098957554009,25.476151396567754,-0.0302734375,0.0732421875,0.93212890625,8.7890625,-4.69970703125,2.99072265625,0.028240563347935677,0.001703638699837029,-0.22061532735824585,0.9749504923820496
0,1651541272,528833929,-3.2005393467126457,0.6081404602649244,25.42238073232683,-0.06396484375,0.09130859375,0.76904296875,3.90625,-0.54931640625,0.06103515625,0.028408808633685112,-0.0009698179783299565,-0.22009238600730896,0.9750648140907288
0,1651541272,574135506,-2.9151191882327416,0.8545785413565976,25.39304848493621,-0.0400390625,0.04248046875,1.0986328125,2.01416015625,3.2958984375,0.244140625,0.02645234204828739,0.0016823788173496723,-0.21989484131336212,0.9751635193824768
0,1651541272,634019579,-3.1976384373060944,0.907641640688192,25.41806405277138,-0.03466796875,0.05029296875,0.978515625,4.57763671875,-3.173828125,0.48828125,0.028958454728126526,0.0015854864614084363,-0.22012300789356232,0.9750409126281738
0,1651541272,692876251,-3.4596910245315042,0.9738696094798686,25.34551719850209,0.0537109375,0.08935546875,0.9150390625,-4.57763671875,-2.50244140625,0.48828125,0.03131404146552086,0.001665464835241437,-0.21952475607395172,0.9751027822494507
0,1651541272,733594649,-3.534037633647093,0.9072479443155642,25.364710030069826,0.07763671875,0.07763671875,0.80322265625,-1.15966796875,-2.25830078125,-0.42724609375,0.03181949630379677,0.0009507449576631188,-0.21967266499996185,0.975054144859314
0,1651541272,767966970,-3.436143093594239,1.0261589764445473,25.380699502916826,-0.03369140625,0.07666015625,0.939453125,2.38037109375,-5.2490234375,0.54931640625,0.031214259564876556,0.0021459965500980616,-0.2198362499475479,0.9750349521636963
0,1651541272,834067343,-3.1206203704513844,1.0282109146816074,25.37786497441127,-0.05029296875,0.080078125,1.1083984375,-6.65283203125,2.5634765625,-2.3193359375,0.028533289209008217,0.0027694650925695896,-0.21980583667755127,0.9751223921775818
0,1651541272,889044723,-2.8817456032875897,1.1592487342385367,25.53829075008924,0.02001953125,0.060546875,1.04248046875,-3.5400390625,5.126953125,-2.50244140625,0.026757391169667244,0.0043054549023509026,-0.2211902141571045,0.9748541116714478
0,1651541272,911057745,-2.7392294373870425,1.2317574888588632,25.59280932004428,0.0576171875,0.041015625,0.86083984375,0.244140625,1.3427734375,-2.01416015625,0.02568708173930645,0.0051852562464773655,-0.221661776304245,0.9747714400291443
0,1651541272,983929011,-2.6339851869004316,1.1663787046800895,25.847478045890085,0.02294921875,0.078125,1.09228515625,-10.68115234375,2.38037109375,-5.0048828125,0.02467629872262478,0.004777786321938038,-0.2238112986087799,0.9743083715438843
0,1651541273,10564344,-2.465232556850573,1.2121012716446242,25.95935654449489,0.00341796875,0.00537109375,0.9443359375,8.23974609375,-3.41796875,-3.60107421875,0.02333594299852848,0.005473400931805372,-0.22476264834403992,0.974118709564209
0,1651541273,73204256,-2.5252144243679786,1.2149065584027954,26.15865804938128,0.04931640625,0.0205078125,1.05224609375,4.69970703125,0.79345703125,-3.11279296875,0.023860640823841095,0.005338109564036131,-0.22645977139472961,0.9737136960029602
0,1651541273,131602581,-2.6037980986465024,1.3430323694957722,26.39821327414114,0.0107421875,-0.00048828125,1.08984375,-1.40380859375,6.77490234375,-2.8076171875,0.024794109165668488,0.006219806615263224,-0.22852030396461487,0.9732035994529724
0,1651541273,193772403,-2.8485466150530967,1.219243515082342,26.551322209670726,-0.0146484375,0.0810546875,0.951171875,-1.953125,-5.2490234375,-3.47900390625,0.026632606983184814,0.004644728731364012,-0.22980976104736328,0.9728600382804871
0,1651541273,253563655,-2.845133654902206,1.2575133851670408,26.73966638358112,-0.0634765625,0.01806640625,1.03955078125,5.06591796875,-4.94384765625,-2.62451171875,0.02668835036456585,0.004932658281177282,-0.2314155548810959,0.9724763631820679
0,1651541273,292829710,-2.946926311980433,1.2985822454292695,26.83640235279601,-0.05615234375,0.04638671875,0.99658203125,-3.96728515625,6.34765625,-2.38037109375,0.02763921394944191,0.0050523243844509125,-0.2322487235069275,0.9722505211830139
0,1651541273,352018695,-3.1677909375199618,1.2828452761381486,27.03330133864185,-0.09130859375,0.04931640625,0.8291015625,3.72314453125,-1.8310546875,-3.60107421875,0.029488909989595413,0.004420482087880373,-0.23392485082149506,0.9717973470687866
0,1651541273,414709993,-3.2314299444510866,1.2132065883514027,27.177143415015024,-0.0029296875,0.07568359375,1.09033203125,-0.42724609375,-4.7607421875,-1.89208984375,0.029891427606344223,0.003662398084998131,-0.23513182997703552,0.9714968204498291
0,1651541273,454293036,-3.3247572223833175,0.9277586822279951,27.269460251836914,-0.09814453125,0.09423828125,1.00732421875,2.8076171875,0.18310546875,-3.173828125,0.03009914420545101,0.0010263422736898065,-0.23585252463817596,0.9713221192359924
0,1651541273,515690916,-3.4469962641853895,0.6535624455451258,27.51094329749001,0.02197265625,0.05615234375,0.77197265625,-0.732421875,2.38037109375,-3.11279296875,0.03056863136589527,-0.0016140632797032595,-0.23783382773399353,0.970823347568512
0,1651541273,574011842,-3.203152107513587,0.9263945653846967,27.67596066783752,0.08203125,0.11572265625,1.05712890625,-3.90625,3.96728515625,-3.11279296875,0.02906985580921173,0.0011619520373642445,-0.23929525911808014,0.9705109596252441
0,1651541273,613008329,-3.0998126260317638,1.2255323050389253,27.84188133070276,-0.03955078125,0.02880859375,0.94384765625,-0.9765625,-2.0751953125,-2.9296875,0.02882372960448265,0.003869839245453477,-0.24076180160045624,0.9701484441757202
0,1651541273,653852601,-3.0156281966338296,1.2849600734599138,27.947394093001115,-0.04345703125,0.1025390625,1.064453125,0.6103515625,0.0,-2.3193359375,0.02823975682258606,0.00452391617000103,-0.24166397750377655,0.9699384570121765
0,1651541273,713639660,-3.098535594100383,1.3166930256220872,28.083912499036746,0.0341796875,0.1513671875,1.01708984375,-5.37109375,-1.0986328125,-2.44140625,0.029013741761446,0.0045831408351659775,-0.24282899498939514,0.9696243405342102
0,1651541273,749673836,-2.9101320829215744,1.0890550935817271,28.1869663932339,0.0244140625,0.03173828125,0.8916015625,11.71875,-6.40869140625,-2.197265625,0.026940952986478806,0.003031595144420862,-0.24364922940731049,0.9694844484329224
0,1651541273,813113175,-2.545505849175029,1.1483872393543355,28.345814395213594,-0.009765625,0.04833984375,1.11474609375,2.25830078125,-1.28173828125,-3.2958984375,0.023987842723727226,0.004275678191334009,-0.24499204754829407,0.969218909740448
0,1651541273,857266501,-2.604125947726663,1.1783063494050474,28.51334869027025,-0.00341796875,0.00927734375,0.9365234375,0.244140625,-0.48828125,-2.685546875,0.02455390803515911,0.004367539659142494,-0.24641603231430054,0.9688433408737183
0,1651541273,912830948,-2.5366863674092497,1.2109390722686642,28.661222285801028,0.04345703125,0.0615234375,1.07177734375,-6.4697265625,-0.06103515625,-2.50244140625,0.024059927091002464,0.0047574518248438835,-0.24766887724399567,0.9685342311859131
0,1651541273,957046828,-2.699114455731088,1.2431521653851485,28.761216255250012,-0.048828125,0.1025390625,0.82763671875,6.04248046875,-7.568359375,-2.38037109375,0.025506312027573586,0.004656426142901182,-0.24852602183818817,0.9682782292366028
0,1651541274,14258763,-2.863306226962671,0.9276613520323225,28.975892515958098,0.02001953125,0.05615234375,0.65283203125,1.708984375,-1.89208984375,-3.35693359375,0.026213785633444786,0.001585093792527914,-0.2502858638763428,0.9678157567977905
0,1651541274,53062856,-2.28519880216938,1.3703652924502823,29.08649035409353,-0.044921875,-0.0009765625,1.1748046875,1.708984375,-6.7138671875,-1.64794921875,0.022302769124507904,0.0065659512765705585,-0.25127357244491577,0.9676369428634644
0,1651541274,113660382,-2.3193469732550938,1.2335494530206395,29.26570427263091,-0.00927734375,0.025390625,1.0771484375,1.52587890625,2.25830078125,-1.953125,0.022299975156784058,0.005300757009536028,-0.2527685761451721,0.9672552943229675
