,s,ns,phi_r,phi_p,phi_y,ax,ay,az,wx,wy,wz,q.x,q.y,q.z,q.w
0,1651541648,288507072,-3.6314275934750126,1.1858072844958965,-110.6666864422652,-0.0283203125,0.064453125,0.99951171875,-0.54931640625,0.18310546875,-0.48828125,0.009514778852462769,0.03194158896803856,0.8218317627906799,0.5687547326087952
0,1651541648,303113916,-3.6610112772044534,1.0783128068428838,-110.65923470588072,-0.0185546875,0.0654296875,0.9892578125,-0.1220703125,0.18310546875,-0.48828125,0.010434940457344055,0.031620051711797714,0.8218111395835876,0.5687862038612366
0,1651541648,327595547,-3.6710055515074744,1.079433811640412,-110.64978855425859,-0.0166015625,0.06494140625,0.99169921875,-0.18310546875,0.244140625,-0.42724609375,0.010479118674993515,0.031696420162916183,0.8217612504959106,0.5688533186912537
0,1651541648,367492281,-3.6273038667636173,1.2427076694805688,-110.63265160963103,-0.0263671875,0.06201171875,1.0087890625,-0.6103515625,0.06103515625,-0.42724609375,0.009095605462789536,0.03219145908951759,0.8216506838798523,0.569009006023407
0,1651541648,406877777,-3.636309898071102,1.183580322661355,-110.61713341983676,-0.025390625,0.06494140625,1.00048828125,-0.42724609375,0.1220703125,-0.48828125,0.00956881232559681,0.03196142613887787,0.8215848803520203,0.5691092610359192
0,1651541648,447942118,-3.54587499180896,1.058501309546733,-110.5993339468597,-0.0078125,0.06201171875,0.99560546875,-0.1220703125,0.1220703125,-0.30517578125,0.010021635331213474,0.03069082461297512,0.8215494751930237,0.5692225694656372
0,1651541648,507674879,-3.6179738283573797,1.059405669281525,-110.5748477186852,-0.02392578125,0.0654296875,0.9970703125,-0.30517578125,0.3662109375,-0.48828125,0.010379962623119354,0.031209995970129967,0.8214080929756165,0.5693918466567993
0,1651541648,547598745,-3.590704724982927,1.1638073519009913,-110.56096194410257,-0.02197265625,0.0595703125,1.00830078125,-0.30517578125,0.0,-0.244140625,0.009499604813754559,0.0315316878259182,0.8213229775428772,0.5695121884346008
0,1651541648,589249578,-3.6622765697481983,1.24161323838778,-110.54448069763534,-0.03076171875,0.06298828125,1.0048828125,-0.6103515625,0.18310546875,-0.30517578125,0.009302071295678616,0.03242964670062065,0.8212029933929443,0.5696380138397217
0,1651541648,623065227,-3.58315010887407,1.0962021394962052,-110.52743937565614,-0.01220703125,0.06396484375,0.98974609375,-0.06103515625,0.30517578125,-0.42724609375,0.009955938905477524,0.031138941645622253,0.8211737275123596,0.5697412490844727
0,1651541648,663031488,-3.6184643213171515,1.1634425771106303,-110.51489914834,-0.02294921875,0.0615234375,1.01171875,-0.42724609375,-0.06103515625,-0.42724609375,0.009652936831116676,0.031724963337183,0.8210864663124084,0.5698398947715759
0,1651541648,707291521,-3.6885168758789177,1.0616427696781157,-110.50245454367224,-0.02294921875,0.06640625,0.99462890625,-0.30517578125,0.30517578125,-0.42724609375,0.010734474286437035,0.031719986349344254,0.8210283517837524,0.5699043869972229
0,1651541648,747971811,-3.6583308548420463,1.0854856794101608,-110.4843545423717,-0.0087890625,0.06396484375,0.99072265625,0.0,0.18310546875,-0.3662109375,0.010418437421321869,0.03162053972482681,0.8209412693977356,0.5700411796569824
0,1651541648,782149146,-3.7109122123937435,1.241964779686624,-110.46976525830456,-0.03173828125,0.064453125,1.00244140625,-0.54931640625,0.1220703125,-0.48828125,0.009562688879668713,0.0327737033367157,0.8208174705505371,0.5701693296432495
0,1651541648,827006741,-3.605020374596451,1.1502073780464381,-110.45069537014189,-0.0087890625,0.06396484375,0.98828125,0.06103515625,0.1220703125,-0.42724609375,0.009698647074401379,0.03155744820833206,0.8207737803459167,0.5702987313270569
0,1651541648,889247882,-3.6011211903540197,1.173262254702993,-110.42809427417832,-0.02587890625,0.06298828125,1.0107421875,-0.42724609375,-0.06103515625,-0.42724609375,0.009520273655653,0.031642280519008636,0.8206570148468018,0.5704648494720459
0,1651541648,907795804,-3.646268313880981,1.0339223402099131,-110.42218616054625,-0.0166015625,0.06640625,0.98876953125,-0.06103515625,0.30517578125,-0.48828125,0.010744964703917503,0.03127200901508331,0.8206467628479004,0.5704783797264099
0,1651541648,947193811,-3.6375794594830784,1.1007612907671886,-110.40482381967608,-0.0126953125,0.0625,0.994140625,0.0,0.1220703125,-0.244140625,0.010227623395621777,0.031540703028440475,0.8205476999282837,0.5706155896186829
0,1651541649,7198156,-3.635449721122504,1.181697431606253,-110.38072691228427,-0.02392578125,0.06298828125,0.9990234375,-0.48828125,0.30517578125,-0.54931640625,0.009643934667110443,0.03192609176039696,0.8204097151756287,0.5708027482032776
0,1651541649,47797559,-3.5122800660460176,1.27348162039459,-110.36307770346896,-0.0224609375,0.06201171875,1.0087890625,-0.244140625,-0.06103515625,-0.3662109375,0.008377802558243275,0.03149973973631859,0.8203345537185669,0.5709542632102966
0,1651541649,87721585,-3.5572481105506775,1.233343586850187,-110.34893238169786,-0.02783203125,0.0615234375,1.00830078125,-0.54931640625,0.1220703125,-0.30517578125,0.008893233723938465,0.03162076324224472,0.8202610015869141,0.5710455179214478
0,1651541649,127006806,-3.552010209230924,0.9911582056513459,-110.33324343717435,-0.013671875,0.0634765625,0.9912109375,0.0,0.244140625,-0.30517578125,0.010605668649077415,0.030376022681593895,0.8202385306358337,0.571116030216217
0,1651541649,164292003,-3.609415601327354,1.1282373275291515,-110.32050513437227,-0.02880859375,0.06396484375,1.00634765625,-0.6103515625,0.06103515625,-0.42724609375,0.00991370715200901,0.03146844729781151,0.8201290965080261,0.5712265372276306
0,1651541649,227567615,-3.5176989673787764,1.139915670349404,-110.29406547209516,-0.01220703125,0.04833984375,0.98828125,-0.1220703125,0.30517578125,-0.244140625,0.009380008094012737,0.03086802549660206,0.8200196027755737,0.5714254379272461
0,1651541649,272618468,-2.9922172963667877,1.2555355117937932,-110.26017407343355,-0.001953125,-0.1142578125,0.99658203125,-4.21142578125,-0.54931640625,-0.3662109375,0.005939911585301161,0.02768174558877945,0.8199597597122192,0.5717206597328186
0,1651541649,306586515,-2.668792044354228,1.316662396492528,-110.22518301431558,-0.04248046875,0.01953125,1.00537109375,-0.1220703125,0.0,-1.28173828125,0.0038965041749179363,0.025670934468507767,0.8198480010032654,0.5719922780990601
0,1651541649,342257596,-2.533838818855589,1.2985633556873462,-110.19049248352108,0.041015625,0.005859375,1.06396484375,-4.8828125,0.9765625,-0.732421875,0.003359867027029395,0.02461409941315651,0.8197079300880432,0.5722428560256958
0,1651541649,386870580,-2.8425682785386313,1.2975795950034528,-110.15455202810847,0.0087890625,0.09716796875,0.99951171875,-1.8310546875,0.54931640625,-0.91552734375,0.0049170213751494884,0.0268159918487072,0.8194593191146851,0.5724886059761047
0,1651541649,427956071,-3.321450557051385,1.2902188922340005,-110.14121949884861,0.00732421875,0.11865234375,0.9619140625,1.64794921875,0.732421875,-0.67138671875,0.0073655894957482815,0.030202703550457954,0.8192752003669739,0.572557270526886
0,1651541649,468132260,-3.6919494728236724,1.2904314818719171,-110.12672583742985,-0.04443359375,0.10986328125,0.986328125,1.64794921875,0.48828125,-0.732421875,0.009219384752213955,0.03285132721066475,0.8191007375717163,0.5726341605186462
0,1651541649,526966661,-4.098729072806598,1.2484028733095958,-110.11090711931209,-0.0478515625,0.1005859375,1.001953125,0.30517578125,-0.18310546875,-0.6103515625,0.011557525023818016,0.0355474092066288,0.8189107775688171,0.5727024674415588
0,1651541649,562058033,-3.828303954319222,1.234009743737675,-110.09308032557836,0.0048828125,-0.0537109375,0.986328125,-4.2724609375,-0.06103515625,-0.244140625,0.010314108803868294,0.033541299402713776,0.8189067840576172,0.5728527903556824
0,1651541649,627903939,-3.768592306160855,1.1871813264578328,-110.0594757948619,-0.01220703125,-0.16943359375,0.87646484375,-2.38037109375,0.0,-0.6103515625,0.010360064916312695,0.032877665013074875,0.8187673687934875,0.5730897784233093
0,1651541649,669288339,-3.614031528545813,1.2314606957950849,-110.04296039744881,-0.00439453125,0.06787109375,1.04296875,2.86865234375,2.38037109375,-0.48828125,0.009275143034756184,0.03199319913983345,0.8187180161476135,0.5732287764549255
0,1651541649,703466089,-3.5909553075481018,1.2163656575642394,-110.01446484823151,0.02734375,0.115234375,0.97314453125,-3.23486328125,0.1220703125,-0.244140625,0.009275499731302261,0.03175057843327522,0.8185853958129883,0.5734316110610962
0,1651541649,746921736,-3.693122984700445,1.2805839499143454,-109.98625616695936,0.0302734375,0.1240234375,1.06689453125,3.90625,0.8544921875,0.18310546875,0.00933588482439518,0.032799139618873596,0.8184002041816711,0.5736358761787415
0,1651541649,803045061,-3.779327229101999,1.1629320204701719,-109.94908627749615,0.0048828125,0.04931640625,0.98388671875,0.42724609375,0.18310546875,-0.30517578125,0.010618722066283226,0.032823000103235245,0.8182175755500793,0.5738727450370789
0,1651541649,848886734,-3.5292789127862982,1.1545642916849657,-109.91769472807077,-0.02392578125,-0.04736328125,0.98291015625,-1.64794921875,0.0,-0.9765625,0.009434732608497143,0.030993051826953888,0.8181319236755371,0.5741173028945923
0,1651541649,888204367,-2.9708603620492156,1.1783463700447154,-109.88208212173832,-0.03369140625,-0.0986328125,1.10546875,-0.244140625,1.3427734375,-1.0986328125,0.006475431378930807,0.027122903615236282,0.8180899620056152,0.5744138956069946
0,1651541649,926725772,-2.7010123945467055,1.0955952131554259,-109.82442166476508,-0.02099609375,-0.02734375,0.94482421875,1.0986328125,-0.3662109375,-1.28173828125,0.005726235918700695,0.02477892115712166,0.817878007888794,0.5748293399810791
0,1651541649,967076820,-2.8773900770312375,0.9612120950090713,-109.76741007576298,0.0244140625,0.1240234375,1.0185546875,-3.84521484375,0.54931640625,-1.52587890625,0.007583025377243757,0.025360330939292908,0.8175783753395081,0.5752086639404297
0,1651541650,7116033,-3.27647632268779,0.999611952131412,-109.72148388378382,-0.0087890625,0.0986328125,0.9697265625,-0.244140625,1.64794921875,-1.220703125,0.00932359229773283,0.02839641459286213,0.817246675491333,0.5755125284194946
0,1651541650,47038395,-3.571004111539083,1.1049535328136955,-109.68099452238398,-0.01708984375,0.09228515625,1.04541015625,0.06103515625,1.3427734375,-0.9765625,0.010062226094305515,0.03102189674973488,0.8169441819190979,0.5757938623428345
0,1651541650,107839575,-4.040497441264008,0.9815108836138203,-109.62519187686497,-0.0107421875,0.076171875,0.9287109375,1.40380859375,-1.03759765625,-1.28173828125,0.013317969627678394,0.03374261036515236,0.8165596723556519,0.5761200785636902
0,1651541650,142072903,-4.313930404307128,1.0180704316416656,-109.58078881707073,0.00927734375,0.099609375,0.98876953125,1.03759765625,0.3662109375,-0.6103515625,0.014445931650698185,0.03586897626519203,0.81624436378479,0.5764113068580627
0,1651541650,182809443,-4.493522117682974,0.9969168021736072,-109.54208896523343,-0.0458984375,0.0556640625,0.9990234375,-1.64794921875,0.18310546875,-1.3427734375,0.015512537211179733,0.03703664615750313,0.8159978985786438,0.5766585469245911
0,1651541650,227441177,-4.5906768628713515,1.059394463502418,-109.51381198206958,-0.0224609375,0.07421875,0.99072265625,-0.244140625,0.48828125,-0.9765625,0.015565725043416023,0.0380387082695961,0.8158073425292969,0.5768615007400513
0,1651541650,267757317,-4.710371659207594,1.1693008517060914,-109.48333567799298,0.02490234375,0.09521484375,1.05419921875,-0.244140625,0.54931640625,0.1220703125,0.01539592258632183,0.039439376443624496,0.815583348274231,0.5770888328552246
0,1651541650,308239102,-4.643592045918733,1.1295166006163537,-109.4530164682673,0.0146484375,0.08203125,0.9892578125,0.244140625,0.54931640625,-0.54931640625,0.01535319909453392,0.03875989094376564,0.815464437007904,0.5773040056228638
0,1651541650,347035995,-4.487965758793169,0.958208626043264,-109.40851095563549,-0.05517578125,-0.38916015625,0.32470703125,-10.55908203125,-7.87353515625,-1.28173828125,0.01580323465168476,0.03678407892584801,0.8153369426727295,0.5776009559631348
0,1651541650,387237237,-3.6395521034927425,1.1290810693350597,-109.40877733301312,-0.12744140625,-0.4072265625,0.99560546875,3.96728515625,-3.11279296875,0.42724609375,0.010309695266187191,0.031607307493686676,0.8155498504638672,0.5777310729026794
0,1651541650,426916555,-3.1355057005303695,1.2117811065272799,-109.4322185422446,0.01220703125,-0.54736328125,1.2158203125,-1.52587890625,7.38525390625,0.30517578125,0.007173656020313501,0.028437824919819832,0.8157817721366882,0.5776157379150391
0,1651541650,465037431,-2.5676335276517546,1.0753473308043346,-109.41262272951583,0.09375,-0.56201171875,1.05322265625,-9.033203125,4.2724609375,-0.8544921875,0.005286948289722204,0.023706573992967606,0.8158389925956726,0.5777689814567566
0,1651541650,504604314,-2.3160074376377806,1.2330088008591507,-109.3937714074066,0.0087890625,-0.33544921875,0.869140625,0.67138671875,-4.0283203125,-1.64794921875,0.002899129642173648,0.0227090772241354,0.8157666325569153,0.5779281258583069
0,1651541650,571215987,-1.6786264572883556,1.2553592075358422,-109.36140314092991,0.05322265625,-0.4580078125,1.109375,-1.8310546875,5.18798828125,0.732421875,-0.0004694549134001136,0.01828410103917122,0.81571364402771,0.578166663646698
0,1651541650,607391553,-1.0966094962471729,1.2101918068847826,-109.2838941542286,-0.052734375,-0.435546875,0.81396484375,-6.53076171875,-5.37109375,-2.44140625,-0.003074964275583625,0.013915091753005981,0.8154103755950928,0.5787078738212585
0,1651541650,643620521,-0.7394769405154832,1.228511654899226,-109.1411500307645,-0.0927734375,-0.27099609375,0.82177734375,2.25830078125,6.34765625,-3.662109375,-0.004994619637727737,0.011472473852336407,0.8147263526916504,0.5797107815742493
0,1651541650,688408429,-0.20610932251882538,1.1995207035236954,-108.96677530125409,0.0087890625,-0.6044921875,1.55712890625,-4.5166015625,9.33837890625,-4.33349609375,-0.0074752140790224075,0.007544947322458029,0.813890278339386,0.5809217095375061
0,1651541650,727337114,0.1775906146913776,1.2769015174563567,-108.70107411235142,0.00390625,-0.5546875,1.27685546875,-18.310546875,12.02392578125,-6.7138671875,-0.009957822971045971,0.005235052201896906,0.8125565648078918,0.5827738642692566
0,1651541650,763007427,0.44346713401642934,1.0914957122712432,-108.41400809172495,-0.099609375,-0.29443359375,1.46044921875,4.39453125,-18.798828125,-7.75146484375,-0.00998925045132637,0.0024317798670381308,0.8111140131950378,0.5847976803779602
0,1651541650,810233739,0.35195028310107473,1.1298756124346025,-108.04338153679255,0.03271484375,-0.33740234375,0.66943359375,-0.244140625,-5.18798828125,-7.26318359375,-0.009783213958144188,0.003307107137516141,0.8092141151428223,0.5874232053756714
0,1651541650,866868557,0.72115100936381,1.240357230632438,-107.89192892213669,0.04248046875,-0.3251953125,1.01025390625,-0.8544921875,-6.28662109375,11.5966796875,-0.012454206123948097,0.0012827785685658455,0.8084390163421631,0.5884467959403992
0,1651541650,909595200,0.929147024898506,0.5412919047541287,-109.22938241446273,0.5458984375,-0.2109375,1.326171875,-3.96728515625,0.18310546875,42.236328125,-0.00854615680873394,-0.0038751461543142796,0.8152626156806946,0.5790154933929443
0,1651541650,946866063,0.6198526872267625,-0.04966260894501353,-111.1733840258426,0.4013671875,0.109375,0.96826171875,-4.45556640625,-10.1318359375,63.53759765625,-0.002699528355151415,-0.004707430023699999,0.8249688148498535,0.5651522278785706
0,1651541650,989492207,0.926006205097358,-0.1334039998566627,-114.50200841595661,0.39990234375,-0.267578125,1.5849609375,4.2724609375,18.798828125,76.96533203125,-0.003392315935343504,-0.007426121737807989,0.8410153985023499,0.5409497022628784
0,1651541651,27529028,0.6233989961490272,-0.6387398678291403,-117.24519680174132,0.24365234375,0.1572265625,1.11328125,-5.2490234375,1.40380859375,62.56103515625,0.0019262931309640408,-0.007546697277575731,0.8537145256996155,0.5206830501556396
0,1651541651,87875701,0.513423612362566,-0.46054615543817845,-119.38658404994538,0.0927734375,0.0673828125,0.810546875,21.05712890625,7.6904296875,3.23486328125,0.0012087796349078417,-0.005896194837987423,0.863311767578125,0.5046350359916687
0,1651541651,126897080,0.7453454603946993,0.4870683669547198,-118.17912954809218,-0.28759765625,-0.345703125,1.43896484375,-13.61083984375,18.61572265625,-41.1376953125,-0.006987919099628925,-0.0033970652148127556,0.8579596877098083,0.5136582851409912
0,1651541651,167043928,0.1766246098312836,1.2633942847641275,-115.6038477026739,-0.2001953125,0.197265625,0.87841796875,4.82177734375,25.7568359375,-69.51904296875,-0.010150691494345665,0.004570405930280685,0.8461677432060242,0.5328004956245422
0,1651541651,209060254,0.09462684148374503,2.2807096603373895,-111.92728664605026,-0.26953125,0.0302734375,0.93017578125,0.48828125,17.4560546875,-87.646484375,-0.016954239457845688,0.010455143637955189,0.8285273909568787,0.5595941543579102
0,1651541651,247044761,0.7622666137331712,2.744904257370265,-108.17448018772177,-0.1943359375,-0.44091796875,1.32080078125,-11.3525390625,-5.4931640625,-105.40771484375,-0.023298785090446472,0.008662549778819084,0.8097542524337769,0.5862425565719604
0,1651541651,307379820,1.1021829306099034,2.7781945993849075,-101.49918604770657,-0.5478515625,-0.10302734375,0.7919921875,15.869140625,9.8876953125,-90.27099609375,-0.024855563417077065,0.007891392335295677,0.7742723226547241,0.6323151588439941
0,1651541651,346868952,1.0874626990097622,3.357365612698016,-99.03864455015533,-0.650390625,-0.0322265625,1.16796875,-5.7373046875,-11.41357421875,-46.08154296875,-0.02843903750181198,0.01180173922330141,0.7604447603225708,0.648672342300415
0,1651541651,386771573,1.4820368576675809,3.0738549189779536,-98.42032801516159,-0.193359375,-0.2666015625,1.4775390625,7.38525390625,6.53076171875,6.4697265625,-0.028750760480761528,0.007732394151389599,0.7570019364356995,0.6527340412139893
0,1651541651,422996637,1.0319244031559787,2.1134306436009607,-100.39530453442745,0.27978515625,0.04736328125,0.96337890625,-4.7607421875,-4.638671875,65.4296875,-0.019931280985474586,0.0048880078829824924,0.7682018280029297,0.6398788094520569
0,1651541651,469338476,1.1868274372814613,1.3354392268511277,-103.33783199113898,0.4775390625,-0.15087890625,0.94091796875,2.5634765625,-9.6435546875,83.984375,-0.015564016066491604,-0.0008965113083831966,0.7844195365905762,0.6200346350669861
0,1651541651,502971714,1.0409424940162169,0.9011846573232969,-106.22187936817687,0.373046875,0.00390625,0.77587890625,-1.15966796875,-3.90625,51.94091796875,-0.011742101050913334,-0.002544549060985446,0.7997844815254211,0.6001670956611633
0,1651541651,570346753,1.015933756370215,1.2936086937747366,-106.80935759906801,-0.0419921875,0.04931640625,0.9404296875,1.28173828125,11.04736328125,-27.52685546875,-0.014347857795655727,-0.0003878624993376434,0.8028431534767151,0.5960177183151245
0,1651541651,587832590,0.7447870924300507,1.7000683420837295,-106.05699860161276,-0.1318359375,0.1630859375,0.69384765625,9.8876953125,27.4658203125,-46.5087890625,-0.01576067879796028,0.0037299913819879293,0.7988879680633545,0.6012618541717529
0,1651541651,646716041,0.2669837703627475,2.779377502771789,-101.2930509385556,-0.66162109375,0.13671875,0.71484375,3.23486328125,-0.54931640625,-91.49169921875,-0.020229928195476532,0.013577348552644253,0.7730550765991211,0.6338708400726318
0,1651541651,687300566,-0.1435402140283732,3.3964874421599682,-97.47485907930258,-0.693359375,0.19775390625,0.64697265625,44.677734375,27.4658203125,-82.6416015625,-0.021451164036989212,0.02048616297543049,0.7513399124145508,0.6592485308647156
0,1651541651,723766690,-0.3772066684653423,3.629518128715171,-94.58297064509752,-0.32177734375,0.20654296875,1.36328125,-1.220703125,20.08056640625,-41.44287109375,-0.021038556471467018,0.023897061124444008,0.7343705892562866,0.6780016422271729
0,1651541651,766756087,-0.5405267101236757,3.242320681082672,-93.37128825614808,-0.37060546875,0.1669921875,1.2216796875,3.41796875,-53.64990234375,-20.3857421875,-0.017349643632769585,0.02283799648284912,0.7272100448608398,0.6858155131340027
0,1651541651,806775590,-0.27264829170136234,3.4548516220611387,-92.94673052752925,-0.64599609375,-0.251953125,2.61962890625,-50.78125,47.7294921875,-5.0048828125,-0.0202186219394207,0.022484684363007545,0.7246733903884888,0.6884287595748901
0,1651541651,867252008,-0.7351268037052726,2.5616325661356636,-93.94922471276871,-0.12841796875,0.123046875,1.1826171875,-2.9296875,-6.2255859375,25.634765625,-0.011964458972215652,0.01993999443948269,0.7307559251785278,0.6822426319122314
0,1651541651,906849800,-1.2722196362237244,1.7734320442890712,-95.26209635427188,0.0576171875,0.24560546875,0.88330078125,5.06591796875,-5.4931640625,38.818359375,-0.003952158149331808,0.01862971857190132,0.7385708689689636,0.6739068627357483
0,1651541651,950831305,-1.744932012760135,0.8244534584137274,-97.61979569349025,0.28076171875,0.14501953125,0.85595703125,9.033203125,-12.6953125,61.82861328125,0.004613950848579407,0.0161958746612072,0.752349853515625,0.6585485935211182
0,1651541651,986453816,-1.5453974276683216,0.09928979962392084,-100.56742530151178,0.2978515625,0.0654296875,1.58935546875,-6.16455078125,-1.89208984375,82.03125,0.007950753904879093,0.010927069932222366,0.7691402435302734,0.6389371752738953
0,1651541652,22310347,-1.7049337846503059,-0.917203798804504,-104.5001389425784,0.37158203125,0.08251953125,0.91455078125,-0.3662109375,4.08935546875,89.05029296875,0.015436150133609772,0.006863705348223448,0.7906503677368164,0.612034797668457
0,1651541652,67748963,-1.8382815955288747,-1.6103042884641294,-108.68786452649661,0.484375,0.19970703125,0.92724609375,0.30517578125,1.89208984375,96.435546875,0.020766159519553185,0.004842628259211779,0.8124773502349854,0.5826026797294617
0,1651541652,101889054,-1.749479317921777,-1.7251854022610995,-111.92348223068257,0.5244140625,0.0830078125,1.18408203125,-6.2255859375,-6.04248046875,72.69287109375,0.021018074825406075,0.004223632160574198,0.8286021947860718,0.5594272613525391
0,1651541652,146854445,-2.0206542631139737,-1.9530957948163197,-114.09602880188022,0.33642578125,0.17333984375,0.56298828125,6.16455078125,11.962890625,33.69140625,0.023888763040304184,0.005524910520762205,0.8390378355979919,0.5435203313827515
0,1651541652,207003765,-1.3750178252138245,-1.9741067373637482,-115.22376133574103,-0.07275390625,-0.12353515625,0.68017578125,1.46484375,1.0986328125,6.9580078125,0.0209719967097044,0.0009041965240612626,0.8443636894226074,0.5353592038154602
0,1651541652,248043821,-1.0847486593100342,-2.3001855178688575,-115.54513539656847,0.08154296875,-0.05712890625,0.88134765625,13.427734375,-9.8876953125,6.34765625,0.022025594487786293,-0.0026972086634486914,0.8458309173583984,0.5329893827438354
0,1651541652,306802710,-1.5311365262898637,-1.7783749668140447,-115.93385512261223,0.21728515625,0.09716796875,1.03271484375,11.16943359375,3.84521484375,7.38525390625,0.02024070918560028,0.0030950834043323994,0.8476743102073669,0.5301216840744019
0,1651541652,346892509,-2.0476811082163024,-1.813665380316737,-116.16701046011978,-0.00732421875,0.494140625,0.97265625,3.41796875,-17.63916015625,8.30078125,0.022877294570207596,0.006799287162721157,0.8487272262573242,0.5282921195030212
0,1651541652,408693381,-2.090135002776163,-2.4450585259198823,-117.69951366457389,0.00341796875,0.15771484375,1.40869140625,-7.87353515625,-8.1787109375,44.00634765625,0.027688734233379364,0.004570814315229654,0.8556779623031616,0.516747236251831
0,1651541652,446808657,-1.102416437702153,-2.761620291590225,-120.30600947449913,0.01904296875,-0.5576171875,0.8466796875,-6.65283203125,6.53076171875,65.24658203125,0.025686519220471382,-0.0036505763418972492,0.8671809434890747,0.49731701612472534
0,1651541652,506534378,-1.010682087950416,-3.9501468451494333,-125.31222394741665,0.158203125,0.10546875,0.912109375,-3.11279296875,0.67138671875,77.63671875,0.034661389887332916,-0.00800043623894453,0.8878430724143982,0.45876947045326233
0,1651541652,567014988,-1.0024974936123308,-4.50912184286046,-130.68904448469908,0.3955078125,0.3017578125,1.51513671875,18.9208984375,4.39453125,83.31298828125,0.03939816355705261,-0.008465604856610298,0.908237874507904,0.4165093004703522
0,1651541652,606746172,-1.6178124806309717,-4.792019313659103,-134.17069243297806,0.2626953125,0.29931640625,1.33935546875,-1.0986328125,-15.93017578125,96.3134765625,0.04399516060948372,-0.0032838049810379744,0.9204186797142029,0.3884366750717163
0,1651541652,666648161,-1.9879999824657888,-4.83400704780811,-139.95254318804223,0.20458984375,0.5576171875,0.86865234375,-1.28173828125,-1.46484375,86.36474609375,0.04555165767669678,0.0018465807661414146,0.9388242959976196,0.34136584401130676
0,1651541652,708527735,-2.2996845661819196,-4.665586535706643,-143.50238374499463,0.3310546875,0.4619140625,1.13134765625,-2.685546875,10.1318359375,77.81982421875,0.0449274405837059,0.006298578344285488,0.9489832520484924,0.31204578280448914
0,1651541652,767284897,-2.5761405282630054,-4.884263579721064,-147.77397039154226,0.11865234375,0.51806640625,1.03076171875,0.6103515625,1.64794921875,61.09619140625,0.04715913534164429,0.009753710590302944,0.9598668813705444,0.27629053592681885
0,1651541652,807158305,-2.6952985144191666,-5.0505821011054595,-149.90833620527954,0.2744140625,0.49462890625,1.0,-0.732421875,3.662109375,52.734375,0.04863749071955681,0.011255891993641853,0.9647827744483948,0.2582670748233795
0,1651541652,867159578,-1.3474757277159828,-5.79326741626185,-153.0319319768881,0.23876953125,-0.3076171875,1.26123046875,-5.67626953125,11.41357421875,44.0673828125,0.05187619850039482,-0.0003625477256719023,0.9712639451026917,0.2322825789451599
0,1651541652,907313913,-0.6676992295797596,-5.897702289331814,-155.62408438955632,0.458984375,-0.4775390625,1.5205078125,-1.28173828125,-9.09423828125,60.48583984375,0.05151255428791046,-0.00517286965623498,0.976212739944458,0.21054330468177795
0,1651541652,968250469,-0.4697132831605405,-6.634486321045315,-159.9262702835856,0.61376953125,0.13134765625,1.02783203125,7.38525390625,-15.7470703125,68.29833984375,0.05769161880016327,-0.006055125966668129,0.9830789566040039,0.1737547665834427
0,1651541653,7850213,-0.7162354075955165,-6.71390605316693,-162.64644776205657,0.16162109375,0.42578125,0.939453125,8.72802734375,9.1552734375,76.904296875,0.05882636457681656,-0.002665495267137885,0.9868948459625244,0.150236576795578
0,1651541653,69293846,-0.9575948695133149,-6.858352174394829,-167.8764875340754,0.19189453125,0.49609375,1.01318359375,9.521484375,2.0751953125,77.880859375,0.060359030961990356,0.0019786579068750143,0.992646336555481,0.10491058975458145
0,1651541653,107717886,-1.159340835070626,-6.859068917370857,-171.14786127856638,0.2158203125,0.47900390625,1.1552734375,5.0048828125,7.38525390625,68.42041015625,0.06041882932186127,0.005452444311231375,0.9952280521392822,0.07642712444067001
0,1651541653,167105375,-1.5003733542681263,-6.556052270598296,-174.9469627590892,0.15673828125,0.49658203125,1.04931640625,2.50244140625,4.8828125,51.6357421875,0.0576968714594841,0.010538293980062008,0.9973409175872803,0.0432579331099987
0,1651541653,206650661,-1.7032178063430459,-6.569544882416833,-176.66232378800288,0.15478515625,0.478515625,0.86376953125,-2.13623046875,-1.52587890625,41.015625,0.05770019069314003,0.013163615949451923,0.9978482723236084,0.028220284730196
0,1651541653,266350401,-0.2558824718056554,-6.434321651002567,-179.57578195960684,-0.033203125,-0.42236328125,1.1318359375,-2.86865234375,3.41796875,53.77197265625,0.05612827464938164,0.002021701540797949,0.9984151721000671,0.003570845350623131
0,1651541653,302569194,0.7993318625638618,-6.4214053363952495,177.6016387234197,0.2001953125,-0.41357421875,1.24609375,-2.62451171875,10.31494140625,69.51904296875,0.05614012852311134,-0.005790841765701771,0.9981956481933594,-0.02050415612757206
0,1651541653,368241424,1.9910462468356145,-6.203981632093527,172.34530272309632,0.14404296875,-0.408203125,0.98974609375,1.03759765625,16.4794921875,92.041015625,0.055142708122730255,-0.013698595575988293,0.9962201714515686,-0.06570416688919067
0,1651541653,406767244,2.787807450311466,-5.977215936554518,168.5197547501072,0.25341796875,-0.4482421875,1.30908203125,13.671875,6.8359375,103.8818359375,0.0542902946472168,-0.01895785704255104,0.9934653639793396,-0.09858900308609009
0,1651541653,468535192,2.810573964918999,-6.589107397973396,161.91628687940386,0.447265625,0.33251953125,0.88525390625,15.56396484375,-0.244140625,88.0126953125,0.06058572605252266,-0.015150750987231731,0.9858666062355042,-0.15545716881752014
0,1651541653,506768118,2.4651990462349573,-6.446482802819775,158.238913030269,0.3603515625,0.39794921875,1.16943359375,2.01416015625,-3.7841796875,80.13916015625,0.05925701931118965,-0.010480161756277084,0.9804708361625671,-0.18723200261592865
0,1651541653,564847823,2.0083501042110186,-6.199845098777438,153.8212969392665,0.16845703125,0.5244140625,0.77783203125,0.67138671875,5.4931640625,62.6220703125,0.05662747472524643,-0.004799889866262674,0.9726581573486328,-0.22518110275268555
0,1651541653,608305614,1.8421319012300577,-6.065197310800745,151.77807316981384,0.10693359375,0.55322265625,0.91162109375,5.31005859375,-1.3427734375,51.025390625,0.05521472170948982,-0.002671666909009218,0.9685494303703308,-0.2426028996706009
0,1651541653,667055449,2.0313949490272303,-6.369846372784939,149.0174473110781,0.25244140625,-0.89013671875,0.83740234375,-31.67724609375,-19.04296875,49.4384765625,0.05825921893119812,-0.002219019690528512,0.9622945189476013,-0.26568812131881714
0,1651541653,706572930,3.143761905133034,-5.801747949890068,146.69848880483204,0.0771484375,-0.3076171875,0.8125,8.056640625,0.6103515625,58.65478515625,0.05631782487034798,-0.011751505546271801,0.956879198551178,-0.2847323417663574
0,1651541653,766371283,4.299554136764721,-5.354284755002784,142.16384425259054,0.03466796875,-0.52880859375,1.23193359375,4.5166015625,14.0380859375,81.0546875,0.056302510201931,-0.020314078778028488,0.9448536038398743,-0.3219766616821289
0,1651541653,806962335,4.395178065805369,-5.55227913243676,138.6868135121905,0.59912109375,0.05322265625,0.994140625,6.103515625,-21.240234375,89.84375,0.05879795923829079,-0.018765214830636978,0.9345812201499939,-0.3503551483154297
0,1651541653,866323618,3.6679959994044378,-5.4022245721266335,133.38526165956162,0.04443359375,0.52685546875,0.8642578125,5.859375,2.13623046875,84.41162109375,0.05590667575597763,-0.010723084211349487,0.9175019264221191,-0.3936365842819214
0,1651541653,922669605,3.2731037033416843,-5.033950590476478,129.21832717147691,0.2451171875,0.55908203125,1.0244140625,8.48388671875,-4.33349609375,53.52783203125,0.051891300827264786,-0.006952898111194372,0.9027019739151001,-0.4270692467689514
0,1651541653,966532628,2.9948795760392115,-4.786742565638445,127.37444930314027,0.1845703125,0.521484375,1.00341796875,3.5400390625,-1.40380859375,37.65869140625,0.048993997275829315,-0.004899509251117706,0.8957836031913757,-0.4417549967765808
0,1651541654,27287510,2.5523439357512694,-4.732980012247159,125.69427740883049,0.27978515625,0.49365234375,0.83984375,-1.28173828125,-4.69970703125,20.56884765625,0.0468868725001812,-0.0009608802502043545,0.8892324566841125,-0.455045610666275
0,1651541654,81712920,4.25345377496172,-4.38131790443212,123.93506656544533,0.0576171875,-0.501953125,1.15380859375,1.708984375,5.67626953125,37.109375,0.051145005971193314,-0.014779985882341862,0.882095456123352,-0.4680529236793518
0,1651541654,126407047,4.403070776278142,-4.051665227443802,122.35458811226106,0.19970703125,-0.416015625,0.8056640625,6.53076171875,7.8125,46.5087890625,0.04945603385567665,-0.01660485938191414,0.8755765557289124,-0.48025423288345337
0,1651541654,182277377,4.6135806215925195,-3.5140136534347315,120.64750527262143,-0.16357421875,-0.423828125,0.2880859375,-8.85009765625,13.427734375,6.28662109375,0.046536050736904144,-0.019786633551120758,0.8683356046676636,-0.4933924973011017
0,1651541654,230940034,5.4799333418611615,-3.160799598574219,120.41462314268068,-0.10986328125,-0.37890625,1.08251953125,-5.43212890625,-0.9765625,4.638671875,0.04764970391988754,-0.027781572192907333,0.8671621084213257,-0.4949621558189392
0,1651541654,263505844,6.031118081936966,-2.9383864410838014,120.2478435835273,-0.0283203125,-0.3564453125,0.974609375,0.3662109375,-0.244140625,0.732421875,0.04839766025543213,-0.032846927642822266,0.866291344165802,-0.49610280990600586
0,1651541654,326752467,6.613851892675883,-2.3529162858086483,120.79705909468804,0.109375,-0.2119140625,1.2158203125,14.6484375,15.56396484375,-16.29638671875,0.04631032794713974,-0.040020253509283066,0.8684365153312683,-0.49200794100761414
0,1651541654,366294170,6.4584202659416645,-1.9044172500450502,121.95357404571126,-0.0439453125,-0.359375,1.7919921875,-5.92041015625,19.34814453125,-33.8134765625,0.041834212839603424,-0.041200052946805954,0.8733684420585632,-0.48350822925567627
0,1651541654,427034461,6.572116448639343,-1.3081581706456276,124.9161002963126,-0.31298828125,-0.11181640625,1.44091796875,1.953125,23.01025390625,-59.02099609375,0.03660867363214493,-0.04555187001824379,0.8854595422744751,-0.4610273540019989
0,1651541654,465303991,6.151637623615487,-0.9827183329930316,127.76775891630628,-0.1494140625,0.126953125,0.85107421875,13.85498046875,5.9814453125,-67.93212890625,0.03130776062607765,-0.04440786689519882,0.8967798352241516,-0.4391283392906189
0,1651541654,506581811,5.455107311775458,-0.8398114055667656,130.76722282993904,-0.32421875,-0.13671875,0.54833984375,7.01904296875,-6.103515625,-80.38330078125,0.026476388797163963,-0.04021158069372177,0.9082080125808716,-0.4157407879829407
0,1651541654,546281959,5.139618739578453,-0.7790889961329424,133.79301029263303,-0.25439453125,0.07666015625,0.89111328125,5.79833984375,-3.90625,-55.5419921875,0.02384038455784321,-0.03857452794909477,0.9189709424972534,-0.39170917868614197
0,1651541654,581675952,5.736375782457052,-1.2107224272059278,135.4160135035898,0.01904296875,-0.2958984375,1.0498046875,4.69970703125,-4.57763671875,-31.982421875,0.028743335977196693,-0.04229339212179184,0.9242525696754456,-0.3783414363861084
0,1651541654,629813646,5.461722776873438,-1.176979371715361,136.36001394877727,-0.09033203125,0.10107421875,0.74755859375,12.87841796875,-0.67138671875,-16.4794921875,0.027232356369495392,-0.040415436029434204,0.9274349212646484,-0.3707959055900574
0,1651541654,688540476,5.139504760796679,-0.3654751248747578,138.44984692912607,-0.24365234375,0.26806640625,0.93212890625,9.33837890625,6.40869140625,-50.78125,0.018882116302847862,-0.04079005494713783,0.9340857863426208,-0.3542080521583557
0,1651541654,730890619,4.617201902513096,0.165293299317806,141.95180785999668,-0.31005859375,0.16064453125,0.98388671875,5.9814453125,15.44189453125,-81.9091796875,0.011767907068133354,-0.03855142369866371,0.9445943832397461,-0.32575589418411255
0,1651541654,767534291,4.105922115776267,0.29041780255951744,144.72864858782202,-0.2431640625,0.56005859375,1.0693359375,17.51708984375,5.0048828125,-91.49169921875,0.00843939371407032,-0.03490687161684036,0.9523599743843079,-0.3028545081615448
0,1651541654,808471254,3.433649861103773,0.45364793118073005,149.0760093530218,-0.345703125,0.474609375,1.263671875,10.498046875,-0.79345703125,-89.111328125,0.00417336355894804,-0.02993015944957733,0.9633357524871826,-0.26659175753593445
0,1651541654,866325450,4.712245692361116,-0.05076254287575665,153.245334407316,-0.11083984375,-0.70654296875,1.33203125,-11.53564453125,-3.90625,-54.26025390625,0.00994205567985773,-0.03989266976714134,0.9720491766929626,-0.23114973306655884
0,1651541654,886299221,4.886559377055835,-0.12743544171848972,154.206109797105,-0.18212890625,-0.6787109375,0.69091796875,-2.3193359375,-3.173828125,-50.96435546875,0.010598051361739635,-0.041306909173727036,0.9738969206809998,-0.22294881939888
0,1651541654,948055682,5.558765677714156,-0.5153681352027569,157.04156720838742,-0.2099609375,-0.56298828125,1.19970703125,15.13671875,-14.95361328125,-39.48974609375,0.014052359387278557,-0.046625930815935135,0.9788776636123657,-0.1985625922679901
0,1651541654,986988527,4.439969165721843,-0.15476891162174194,158.2524641255823,-0.23486328125,0.47216796875,0.45654296875,71.96044921875,23.37646484375,-10.55908203125,0.008632812649011612,-0.03778620809316635,0.9813171029090881,-0.18845275044441223
0,1651541655,22079035,4.160839824910932,-0.1771755472971671,159.02666606800324,-0.3408203125,0.62841796875,1.142578125,5.859375,-1.5869140625,-21.30126953125,0.008126558735966682,-0.03541458398103714,0.9826582670211792,-0.18183141946792603
0,1651541655,66405781,3.5312767431185272,-0.3065603943738872,159.35717892194015,-0.1357421875,0.58349609375,1.107421875,11.29150390625,-1.15966796875,-6.103515625,0.008151141926646233,-0.029833536595106125,0.9833623766899109,-0.17900307476520538
0,1651541655,126281533,2.0910713790226896,-0.4920017378870259,159.68569736063944,-0.0498046875,0.69580078125,1.16162109375,16.2353515625,-3.173828125,-2.0751953125,0.007443328853696585,-0.017203859984874725,0.9841686487197876,-0.17624059319496155
0,1651541655,171567750,1.45413297358714,-0.37844778854272765,159.82450046495242,-0.10302734375,0.74462890625,1.0537109375,6.4697265625,-3.96728515625,-3.23486328125,0.005473864730447531,-0.011914705857634544,0.9844633936882019,-0.17509986460208893
0,1651541655,201445937,0.7634090695935616,-0.5029781186875009,159.99931232656974,-0.130859375,0.734375,0.6162109375,2.685546875,-12.14599609375,-3.7841796875,0.005479378160089254,-0.005798468366265297,0.984780490398407,-0.17361976206302643
0,1651541655,241271511,0.7124889421140587,-0.47412233035234236,160.2510730993764,-0.1220703125,0.4873046875,0.93017578125,-18.73779296875,1.5869140625,-6.65283203125,0.0051423609256744385,-0.00541591364890337,0.9851627945899963,-0.1714598834514618
0,1651541655,306895265,2.64791087540103,-0.2491538016582672,160.78442891128435,-0.11767578125,-0.48828125,0.88427734375,-2.197265625,-2.9296875,-7.75146484375,0.005999537650495768,-0.02241838350892067,0.9857162237167358,-0.16680824756622314
0,1651541655,347342526,3.4397948969226686,-0.23572741065816752,160.97500484950606,-0.08837890625,-0.68212890625,1.62890625,-15.93017578125,17.822265625,-4.69970703125,0.006987989880144596,-0.029260793700814247,0.9858134388923645,-0.16512711346149445
0,1651541655,382748390,3.801954792048605,-0.15388033335919238,161.2179136971484,0.078125,-0.421875,0.81689453125,-14.0380859375,7.26318359375,-4.33349609375,0.0067368969321250916,-0.03250861540436745,0.9860610961914062,-0.16303783655166626
0,1651541655,421637816,3.993553124211687,-0.14384155610486035,161.5705427036178,-0.1728515625,-0.36572265625,0.3662109375,11.53564453125,-4.45556640625,-5.9814453125,0.006817922927439213,-0.034192703664302826,0.9865020513534546,-0.15999442338943481
0,1651541655,466156539,4.368833599289807,-0.14382740213863107,161.7102610532796,0.06640625,-0.6015625,0.5390625,-21.240234375,-6.2255859375,-1.5869140625,0.007296102587133646,-0.037432197481393814,0.9865791201591492,-0.15876847505569458
0,1651541655,506433676,4.591761155402091,-0.006020131402491883,162.1416558012576,-0.02099609375,0.04296875,1.10546875,-5.37109375,1.5869140625,-9.27734375,0.0062696970999240875,-0.039566315710544586,0.9870883226394653,-0.1550866961479187
0,1651541655,566453507,4.109756413221584,-0.2267650818892001,162.72937991895884,0.14599609375,0.62548828125,1.21240234375,24.59716796875,-7.50732421875,-6.28662109375,0.007338887546211481,-0.035153232514858246,0.9880369901657104,-0.1499776393175125
0,1651541655,606346176,3.481858190039369,0.06483471025259317,162.96162001111762,-0.14599609375,0.56005859375,1.134765625,22.94921875,-7.38525390625,-2.99072265625,0.0039412640035152435,-0.030128836631774902,0.988507091999054,-0.14808925986289978
0,1651541655,646160135,2.4956079021935005,-0.17662577042983396,163.0584994143051,-0.08984375,0.783203125,0.96923828125,4.82177734375,-3.96728515625,-2.8076171875,0.00473195593804121,-0.021311990916728973,0.9888604283332825,-0.147236168384552
0,1651541655,686951164,1.8822306611867332,-0.30827060970903497,163.07267888702202,-0.021484375,0.6025390625,0.9560546875,8.30078125,-1.708984375,0.18310546875,0.005077939946204424,-0.015849998220801353,0.988978922367096,-0.1471180021762848
0,1651541655,743896537,0.8996330304429404,-0.2954700881524906,163.20905044399052,-0.1220703125,0.81494140625,0.82177734375,11.1083984375,-4.638671875,-4.69970703125,0.0036969869397580624,-0.007390087470412254,0.9892531037330627,-0.14597992599010468
0,1651541655,788266989,2.056355235018807,-0.0829101989113303,163.42700178040562,0.07861328125,-0.11865234375,1.8603515625,-35.64453125,39.4287109375,-6.89697265625,0.0033020200207829475,-0.017652515321969986,0.9894021153450012,-0.14408698678016663
0,1651541655,825994854,2.7650573708466224,-0.10661749870586026,163.78443924005072,-0.009765625,-0.5009765625,0.85302734375,-6.103515625,2.685546875,-6.53076171875,0.004323658533394337,-0.023754972964525223,0.9897191524505615,-0.14097237586975098
0,1651541655,862931100,3.2239991255209355,-0.3108851847789747,164.0920709602681,0.0458984375,-0.611328125,0.88671875,-8.23974609375,-6.7138671875,-9.09423828125,0.006578495725989342,-0.027484986931085587,0.9899945855140686,-0.13824650645256042
0,1651541655,912905892,3.8327888272829815,-0.3829296466182989,163.87172905764348,0.111328125,-0.4951171875,1.32666015625,9.21630859375,2.0751953125,13.7939453125,0.007997940294444561,-0.032641779631376266,0.9895680546760559,-0.14009161293506622
0,1651541655,946797820,3.738723462033566,-1.1285402037301593,162.3536648730948,0.52197265625,-0.41064453125,0.84716796875,-19.8974609375,1.03759765625,54.50439453125,0.014729795046150684,-0.03072337992489338,0.9876419305801392,-0.15297889709472656
0,1651541655,985956974,4.174606071183093,-1.6798217403931077,159.47691213809048,0.2197265625,-0.4384765625,0.8525390625,4.2724609375,-29.541015625,73.73046875,0.020902276039123535,-0.03322622552514076,0.9833414554595947,-0.17747922241687775
0,1651541656,49583554,5.010418454351669,-1.6763458144358059,153.69767051528925,0.3212890625,-0.1201171875,0.5322265625,11.90185546875,-30.70068359375,76.96533203125,0.024175014346837997,-0.039234209805727005,0.9728838801383972,-0.22665657103061676
0,1651541656,86182079,5.249227054057879,-1.5649435080821938,151.5494940590502,0.0009765625,0.16259765625,1.0009765625,5.67626953125,-3.96728515625,35.21728515625,0.024475321173667908,-0.04103156924247742,0.9683837294578552,-0.2448478639125824
0,1651541656,146727225,5.513825594296411,-1.7240909711683106,149.98908270164742,0.19677734375,-0.353515625,0.89453125,-8.9111328125,3.0517578125,13.85498046875,0.026966989040374756,-0.04256247356534004,0.9648613929748535,-0.2578831613063812
0,1651541656,189091606,5.140545083984636,-1.9251210475232399,149.67916969824728,0.11279296875,-0.03173828125,1.1376953125,15.869140625,5.126953125,5.67626953125,0.027924327179789543,-0.038888946175575256,0.9642873406410217,-0.26049524545669556
0,1651541656,226017325,4.0254449849937695,-1.5492739869091268,149.46333572047487,0.08544921875,0.640625,1.25537109375,17.822265625,15.13671875,3.2958984375,0.022282330319285393,-0.03032059408724308,0.9641449451446533,-0.2626953125
0,1651541656,267542189,2.765399520635358,-0.8656437146162826,149.52442493241145,-0.18115234375,0.6376953125,0.8330078125,11.3525390625,11.16943359375,-6.77490234375,0.01362827979028225,-0.021296484395861626,0.9645828008651733,-0.26256564259529114
0,1651541656,327119831,2.1666083620445646,-0.4314600083010907,150.6799836569509,-0.02099609375,0.6650390625,0.73779296875,-5.9814453125,16.90673828125,-29.35791015625,0.008426734246313572,-0.0173377376049757,0.9672829508781433,-0.25296688079833984
0,1651541656,366317157,1.4270511668063337,0.10458901923375243,152.47226627629726,-0.064453125,0.666015625,1.150390625,14.58740234375,18.37158203125,-42.6025390625,0.0020764069631695747,-0.012312584556639194,0.9712060689926147,-0.23791348934173584
0,1651541656,401311389,0.9714821381998318,0.37211516264549444,154.37466520544257,-0.10595703125,0.6640625,1.13720703125,11.77978515625,-2.44140625,-40.34423828125,-0.0012863060692325234,-0.008986655622720718,0.9750540852546692,-0.22178179025650024
0,1651541656,447035284,0.489500554629479,0.09660466816624635,155.8413117259194,-0.0341796875,0.86181640625,0.79638671875,-3.2958984375,-2.197265625,-39.55078125,6.955716526135802e-05,-0.004353519529104233,0.9778487682342529,-0.20926764607429504
0,1651541656,487951450,1.531732673738359,0.34569807200914787,158.03046931717853,-0.09033203125,-0.3310546875,1.26025390625,-15.19775390625,-16.2353515625,-49.31640625,-0.0004142955003771931,-0.013696318492293358,0.9815780520439148,-0.1905696839094162
0,1651541656,526645635,2.2536290274953465,-0.08784110190419026,160.69043184792665,-0.21875,-0.6806640625,1.171875,-22.0947265625,-3.90625,-57.43408203125,0.004053658805787563,-0.019258275628089905,0.9856477379798889,-0.16766411066055298
0,1651541656,586496942,3.354430552345615,-0.048621351942130374,163.74580769010512,-0.14501953125,-0.5771484375,1.02783203125,-9.1552734375,6.4697265625,-44.25048828125,0.004557563923299313,-0.028914839029312134,0.9895344972610474,-0.14129649102687836
0,1651541656,625923041,3.773658172090889,-0.14084931959858651,165.30165648114235,-0.091796875,-0.658203125,1.23779296875,-3.90625,-1.64794921875,-38.39111328125,0.005430064629763365,-0.03249778226017952,0.9912517666816711,-0.12780626118183136
0,1651541656,663233323,4.150787493999966,-0.20993420177360608,166.81793115612848,-0.251953125,-0.5,0.884765625,4.94384765625,-6.40869140625,-30.8837890625,0.005975478794425726,-0.03576497733592987,0.992745041847229,-0.11464034765958786
0,1651541656,706741028,4.523570254275976,-0.22418617854941783,167.92063787687036,-0.35546875,-0.62841796875,1.234375,-20.01953125,6.4697265625,-28.564453125,0.006096444558352232,-0.039040520787239075,0.9936807751655579,-0.10505831241607666
0,1651541656,746661534,4.8543750987999115,-0.17043885968163214,168.95731032871655,-0.81005859375,0.03759765625,0.9921875,1.89208984375,-2.99072265625,-12.8173828125,0.005553870927542448,-0.04201022908091545,0.9944724440574646,-0.09606742113828659
0,1651541656,786926640,5.493209522060374,-0.5130873322676487,168.11689653248152,-0.3271484375,-0.736328125,2.18115234375,-14.58740234375,12.14599609375,28.74755859375,0.009408571757376194,-0.047198086977005005,0.9934976696968079,-0.10318050533533096
0,1651541656,825848095,4.393885452504944,-1.3922467639517702,165.86509244615502,0.388671875,0.35205078125,0.88720703125,30.33447265625,-27.52685546875,73.91357421875,0.016764415428042412,-0.03654668480157852,0.9916566610336304,-0.12247609347105026
0,1651541656,885861815,3.2181198267494358,-1.6499823514566145,160.23272721126574,0.2666015625,0.5224609375,0.93896484375,-0.6103515625,5.126953125,101.98974609375,0.018998345360159874,-0.02518961951136589,0.9847373366355896,-0.17116408050060272
0,1651541656,927531845,3.012384070221485,-1.9209100224565154,155.72969277450306,0.33935546875,0.5791015625,1.00830078125,3.72314453125,-1.64794921875,99.06005859375,0.021906903013586998,-0.022171486169099808,0.9772720336914062,-0.20968562364578247
0,1651541656,967508121,2.102961030820389,-1.8208264067746724,151.3879600851794,0.34033203125,0.78662109375,0.8896484375,11.1083984375,10.25390625,94.66552734375,0.01992763951420784,-0.013853928074240685,0.9687764048576355,-0.2467454969882965
0,1651541657,6042580,1.933953122450301,-1.5908010034542754,148.08751705558086,0.16455078125,0.65869140625,1.08740234375,-7.75146484375,-9.6435546875,84.716796875,0.017984021455049515,-0.012408715672791004,0.9613067507743835,-0.2746123671531677
0,1651541657,41881801,1.7353222567630446,-1.3439510299391388,144.76024504292252,0.15869140625,0.6982421875,1.08642578125,8.6669921875,1.708984375,68.2373046875,0.015759896486997604,-0.010881911963224411,0.9529646635055542,-0.30247578024864197
0,1651541657,86770721,1.4773616999024128,-1.1451751294537253,142.57162020641863,0.24853515625,0.50830078125,1.10400390625,-7.01904296875,1.8310546875,50.78125,0.013600423000752926,-0.009003768675029278,0.9470462203025818,-0.32068300247192383
0,1651541657,146824629,1.21575595645911,-1.502499143925587,140.18687331808704,0.54150390625,-0.00634765625,0.3779296875,-16.41845703125,-23.8037109375,29.11376953125,0.01593930274248123,-0.005510488525032997,0.9401627779006958,-0.3403080403804779
0,1651541657,187657828,2.184741233630479,-1.6172521916756193,139.42691915027473,0.21044921875,-0.37158203125,0.9931640625,4.57763671875,-3.7841796875,4.5166015625,0.019844137132167816,-0.012987766414880753,0.937799870967865,-0.3463655710220337
0,1651541657,225933278,2.6482020122144014,-1.4758314173632128,139.2832939324077,0.26611328125,-0.46337890625,1.185546875,-7.87353515625,12.20703125,0.67138671875,0.020109355449676514,-0.01718345284461975,0.9373106360435486,-0.34748998284339905
0,1651541657,266013574,2.8105494189266693,-1.2919557879955936,139.31592857626202,0.22021484375,-0.60302734375,1.1279296875,-9.46044921875,10.68115234375,-1.5869140625,0.019092552363872528,-0.01907527446746826,0.9373887181282043,-0.34723785519599915
0,1651541657,327174648,4.095060834335478,-0.9002320593774917,141.46641363644054,-0.1240234375,-0.64208984375,1.70849609375,-31.982421875,7.8125,-54.87060546875,0.01920008845627308,-0.031135885044932365,0.9434531331062317,-0.3294815421104431
0,1651541657,366359080,4.415930314937984,-0.38462785576154623,144.06456295520002,0.064453125,-0.4658203125,1.212890625,-2.38037109375,34.423828125,-82.03125,0.01507513877004385,-0.035612937062978745,0.9505587816238403,-0.30812734365463257
0,1651541657,405898286,5.043360029831817,0.45218717783284645,147.75492782413625,-0.072265625,-0.599609375,0.89794921875,-21.728515625,26.85546875,-100.89111328125,0.008430460467934608,-0.043361399322748184,0.9596840739250183,-0.27758824825286865
0,1651541657,446253558,5.191354861220361,0.8745289903136759,152.26040746862182,-0.357421875,-0.2255859375,0.62744140625,4.2724609375,13.671875,-97.5341796875,0.0034543517976999283,-0.045793432742357254,0.969735860824585,-0.23979896306991577
0,1651541657,485847030,4.762982898836909,1.7635552705841155,156.17249393839498,-0.54248046875,0.021484375,0.7177734375,13.7939453125,26.3671875,-100.4638671875,-0.006467691622674465,-0.043827224522829056,0.97736656665802,-0.20686201751232147
0,1651541657,525732277,3.6679037918506423,2.144119110428651,160.82248672533967,-0.40087890625,0.71630859375,1.1787109375,42.78564453125,-10.7421875,-103.1494140625,-0.013109044171869755,-0.034665390849113464,0.9852514863014221,-0.1670512855052948
0,1651541657,566784491,2.7635937893735356,1.857856490803308,165.75848685358946,-0.24755859375,0.48291015625,1.3603515625,15.0146484375,11.962890625,-106.8115234375,-0.013093552552163601,-0.02593451924622059,0.9918197393417358,-0.12429656088352203
0,1651541657,628780988,1.5932606186074205,1.2826318327265858,171.99275567889694,-0.32177734375,0.74755859375,0.96337890625,4.8828125,-11.90185546875,-87.21923828125,-0.0101937809959054,-0.014649978838860989,0.9973898530006409,-0.06996359676122665
0,1651541657,644960321,1.3983054619106887,1.0471722668695032,173.56293420681283,-0.36474609375,0.662109375,1.119140625,9.033203125,-17.39501953125,-79.16259765625,-0.008438022807240486,-0.012695479206740856,0.9983003735542297,-0.05624932050704956
0,1651541657,701479184,0.9211070384717547,0.5665374045044066,177.498161357494,-0.279296875,0.6611328125,1.1083984375,7.32421875,-2.8076171875,-52.42919921875,-0.00476713664829731,-0.00814400240778923,0.9997163414955139,-0.021869681775569916
0,1651541657,746168767,0.8021447799239964,0.2653031169401012,178.98964244579304,-0.58837890625,0.45556640625,1.03076171875,-18.37158203125,-1.953125,-26.3671875,-0.0022533389274030924,-0.007020098157227039,0.9999338388442993,-0.008832940831780434
0,1651541657,781384253,1.9278945312130882,0.21241470770065785,178.17205514176416,-0.3388671875,-0.58837890625,0.9150390625,-1.77001953125,-3.90625,38.9404296875,-0.0015848184702917933,-0.016850654035806656,0.9997290372848511,-0.015980076044797897
0,1651541657,831354565,2.651473032496603,-0.1751483151349956,175.10695311020757,0.212890625,-0.58984375,1.04541015625,-13.61083984375,0.42724609375,87.09716796875,0.002514275023713708,-0.023050058633089066,0.9988214373588562,-0.04264009743928909
0,1651541657,866102297,3.1606457058744826,-0.5746634619868706,171.4768851512642,-0.1533203125,-0.7490234375,0.89892578125,-9.46044921875,-32.40966796875,107.11669921875,0.007048407569527626,-0.02712923288345337,0.9968537092208862,-0.07414255291223526
0,1651541657,906321809,4.045641854369497,-0.7817496216189268,166.3860309741519,-0.03173828125,-0.671875,1.294921875,-21.66748046875,-10.009765625,122.9248046875,0.010953237302601337,-0.03423985093832016,0.9923377633094788,-0.1182093471288681
0,1651541657,946420438,4.530666393936796,-1.1372399437420515,161.55072149464644,0.0830078125,-0.671875,0.68603515625,-5.06591796875,-15.68603515625,125.6103515625,0.01612425409257412,-0.03742446377873421,0.9863103628158569,-0.15978531539440155
0,1651541657,986599314,5.245367997176822,-0.9806364059566471,155.48034988866257,0.08740234375,-0.54931640625,0.99658203125,-6.04248046875,-11.04736328125,125.18310546875,0.018069889396429062,-0.04289805516600609,0.976218581199646,-0.21173249185085297
0,1651541658,26537962,4.773480472704396,-1.5413667622843676,150.3918043154897,0.86083984375,0.03125,1.15380859375,-1.40380859375,-18.00537109375,94.66552734375,0.0236325953155756,-0.03682456538081169,0.9660221934318542,-0.25472864508628845
0,1651541658,88978728,3.528474444568118,-1.7399548325676057,146.6726297086344,0.22119140625,0.58984375,0.67333984375,21.3623046875,-11.1083984375,48.583984375,0.023366080597043037,-0.025138745084404945,0.9575740098953247,-0.28613659739494324
0,1651541658,125914557,2.7723103914149414,-1.4942752759997744,145.2914971565661,0.07958984375,0.72216796875,0.7646484375,9.46044921875,8.544921875,32.04345703125,0.019657351076602936,-0.019199151545763016,0.9542125463485718,-0.2978651225566864
0,1651541658,165823897,2.0545761841834302,-1.4238509030150652,144.1442439420574,0.333984375,0.67236328125,0.99365234375,10.19287109375,1.40380859375,22.8271484375,0.017338266596198082,-0.013232672587037086,0.9512869715690613,-0.30753445625305176
0,1651541658,207668691,1.7381976596819142,-1.1163659251431406,143.36259709344114,0.0869140625,0.85595703125,0.81884765625,2.8076171875,0.1220703125,16.6015625,0.014014346525073051,-0.01133712474256754,0.9492151141166687,-0.31411099433898926
0,1651541658,241448632,1.733325386926168,-1.0209149919875644,142.8001719964256,0.0703125,0.607421875,0.94287109375,-17.02880859375,3.72314453125,13.36669921875,0.01326697040349245,-0.011493660509586334,0.9476658701896667,-0.31878113746643066
0,1651541658,286783676,1.3726671729222824,-0.8616148635013272,142.2909267522878,0.203125,0.66845703125,1.10107421875,0.8544921875,5.0048828125,10.1318359375,0.010985915549099445,-0.008905736729502678,0.9462766051292419,-0.3230490982532501
0,1651541658,346572238,0.7131858882136645,-0.43135910292827434,141.7033938798833,0.072265625,0.78076171875,0.89697265625,10.25390625,4.69970703125,9.58251953125,0.00559741398319602,-0.0046445755288004875,0.9446554183959961,-0.32798364758491516
0,1651541658,366049555,0.489575259823526,-0.39453197690360853,141.51365122474036,0.0263671875,0.70703125,1.10546875,7.4462890625,0.1220703125,10.68115234375,0.0046586026437580585,-0.0028989047277718782,0.9441189169883728,-0.3295593559741974
0,1651541658,407672167,0.09177918620837862,-0.3467164372061409,140.97373843122918,0.0947265625,0.66259765625,1.1337890625,4.2724609375,1.8310546875,12.51220703125,0.003119412809610367,0.00025572217418812215,0.942561149597168,-0.3340190351009369
0,1651541658,467957983,-0.4534650101770206,-0.37151237177081436,140.27483249421846,0.201171875,0.6533203125,1.01171875,4.7607421875,-0.48828125,8.056640625,0.0017046398716047406,0.004823312629014254,0.9404935240745544,-0.339773029088974
0,1651541658,501035254,-0.6669168527546758,-0.3885928072551651,140.15690244800902,0.20703125,0.5869140625,1.0888671875,-2.197265625,-2.74658203125,-0.67138671875,0.0012051009107381105,0.006627061404287815,0.9401320219039917,-0.3407440781593323
0,1651541658,541111422,-0.9127425113377221,-0.3188315762697556,140.26924539947737,-0.04296875,0.3662109375,0.86376953125,-3.90625,1.953125,2.01416015625,-8.994188829092309e-05,0.008436528965830803,0.9404526948928833,-0.33982008695602417
0,1651541658,587416497,-0.9267631821564658,-0.1621970891896746,140.07021368706322,-0.05029296875,0.0986328125,1.05029296875,-6.65283203125,4.150390625,5.615234375,-0.0014310816768556833,0.00808467622846365,0.9398664236068726,-0.3414435386657715
0,1651541658,628992107,-0.9512866562062792,0.19658699827919623,139.78958853482408,-0.05078125,0.05078125,0.9814453125,-4.94384765625,2.86865234375,6.4697265625,-0.004464525263756514,0.007205880247056484,0.9390342235565186,-0.3437193036079407
0,1651541658,665779026,-0.9140382195676147,0.1612303372776401,139.53006866712028,0.0166015625,-0.0830078125,0.8876953125,-5.615234375,0.54931640625,4.69970703125,-0.004078923258930445,0.006997484248131514,0.938255250453949,-0.34584900736808777
0,1651541658,707683237,-0.1972092525249682,0.3072042197444403,139.4481746989718,-0.1025390625,-0.37109375,0.87744140625,-12.939453125,1.46484375,-0.48828125,-0.003111121943220496,0.0006853009108453989,0.9380315542221069,-0.34653520584106445
0,1651541658,745600008,0.4617316735068517,0.5994298879998955,139.7044843777657,0.0361328125,-0.40576171875,0.88134765625,-4.94384765625,2.5634765625,-9.09423828125,-0.003522988175973296,-0.00558449886739254,0.9387797713279724,-0.34445473551750183
0,1651541658,788612283,0.65578465826376,0.7727190443191121,140.29681204296756,-0.05810546875,0.2333984375,1.0361328125,5.18798828125,-0.42724609375,-14.5263671875,-0.004399055615067482,-0.007672423962503672,0.940525472164154,-0.3396081328392029
0,1651541658,829272671,1.786551236859079,0.9797881818390961,141.27813264177996,0.07080078125,-0.63134765625,0.984375,-12.0849609375,12.8173828125,-28.076171875,-0.002897494938224554,-0.01754198782145977,0.943255603313446,-0.33159127831459045
0,1651541658,866406429,1.9347821366608113,1.1751382088472193,142.64585070231834,-0.203125,0.1142578125,1.04833984375,17.88330078125,4.33349609375,-37.17041015625,-0.004307074472308159,-0.019276892766356468,0.9470981955528259,-0.3203355669975281
0,1651541658,906693869,1.3788783761987626,1.3957726356673776,144.0089925361128,-0.09033203125,0.314453125,1.1220703125,-3.47900390625,8.544921875,-34.66796875,-0.007866297848522663,-0.01520589366555214,0.950896143913269,-0.309036523103714
0,1651541658,965998423,0.26454712705677186,0.9502916897432787,144.95552015129317,0.07177734375,0.263671875,0.9453125,-1.0986328125,-5.67626953125,1.953125,-0.0072129168547689915,-0.004698157776147127,0.953559160232544,-0.30108314752578735
0,1651541659,3815014,1.4996043176562652,1.0223379124907483,144.9500013584438,0.01513671875,-0.505859375,1.2470703125,-17.2119140625,-5.79833984375,0.244140625,-0.004566282965242863,-0.015164478681981564,0.9534308910369873,-0.30119553208351135
0,1651541659,42108734,2.1083231562056723,0.8494199876250925,145.0744064239864,-0.00390625,-0.57373046875,0.96484375,-8.72802734375,-2.3193359375,-2.74658203125,-0.0015489904908463359,-0.01977318339049816,0.9536834359169006,-0.3001575171947479
0,1651541659,88012096,2.637767404153326,0.7781355977743437,145.18821103593717,-0.0537109375,-0.572265625,1.05078125,-6.16455078125,-6.89697265625,-3.35693359375,0.0004072651208844036,-0.023993125185370445,0.9538879990577698,-0.29920199513435364
0,1651541659,130897601,3.449095266694699,0.8126011592130512,145.47404079232385,0.0126953125,-0.5595703125,0.99462890625,-10.92529296875,7.01904296875,-9.765625,0.002161838347092271,-0.030841516330838203,0.9544329047203064,-0.29681986570358276
0,1651541659,168355993,3.98104790161504,0.9975213806368591,146.3090587391146,-0.0283203125,-0.4794921875,0.97412109375,-2.86865234375,12.26806640625,-28.01513671875,0.0017389472341164947,-0.03576358035206795,0.9563884735107422,-0.28989508748054504
0,1651541659,201182541,4.6747966189155825,1.3500615946470673,148.0737747149708,-0.02197265625,-0.439453125,1.0029296875,-17.08984375,0.91552734375,-59.6923828125,-0.00010194836067967117,-0.04244594648480415,0.9604402184486389,-0.2752324938774109
0,1651541659,265916704,5.358398663317247,1.7966052753173378,153.1031845103097,-0.1123046875,-0.46923828125,0.9013671875,2.38037109375,19.287109375,-92.6513671875,-0.00436128955334425,-0.0490986667573452,0.9712267518043518,-0.23299957811832428
0,1651541659,311809475,5.284662929245552,1.8298746998776467,158.55795116640027,-0.4287109375,-0.35205078125,0.94384765625,29.9072265625,9.033203125,-108.21533203125,-0.0070976316928863525,-0.048257868736982346,0.9812378883361816,-0.18652896583080292
0,1651541659,353994357,4.880580400211135,2.621244322777419,162.80944339640973,-0.90283203125,0.12158203125,1.150390625,18.49365234375,22.03369140625,-105.40771484375,-0.01623346284031868,-0.04550430551171303,0.9874680638313293,-0.15024223923683167
0,1651541659,385671343,3.9197934844778963,2.8119596395468656,166.72303250780033,-0.33447265625,0.5810546875,0.970703125,35.400390625,1.46484375,-103.02734375,-0.020405270159244537,-0.03679531812667847,0.9923184514045715,-0.11633548140525818
0,1651541659,426701704,3.3500434364643508,3.121819922424368,171.4268745061614,-0.525390625,0.521484375,1.025390625,15.5029296875,-12.02392578125,-104.30908203125,-0.024967825040221214,-0.03117304854094982,0.9963472485542297,-0.07547915726900101
0,1651541659,466554730,2.623721120125195,2.887599075406291,175.41075992448975,-0.49169921875,0.62841796875,0.96484375,11.1083984375,3.90625,-98.32763671875,-0.02425323612987995,-0.023877212777733803,0.9985960721969604,-0.04059119522571564
0,1651541659,505731195,2.2417713922093814,2.5676476149169174,178.83481571768718,-0.44384765625,0.5654296875,1.13037109375,11.16943359375,-11.29150390625,-57.373046875,-0.022200776264071465,-0.0197837483137846,0.9995015859603882,-0.010601792484521866
0,1651541659,546100065,1.5733644909985849,2.1366056888982254,-179.89919141680696,-0.166015625,0.65673828125,0.9306640625,6.103515625,-9.09423828125,-25.45166015625,-0.018654633313417435,-0.013710970059037209,0.9997318387031555,0.0006235480541363358
0,1651541659,586692589,1.0729506814576006,1.477683465845344,-179.34613733933267,-0.044921875,0.71533203125,1.06396484375,11.90185546875,-15.44189453125,-4.8828125,-0.012947509065270424,-0.009288618341088295,0.999857485294342,0.005584482103586197
0,1651541659,621609325,2.2564232151961163,0.846859520459984,179.93032341904387,0.0517578125,-0.42626953125,1.1181640625,-30.82275390625,-18.49365234375,34.423828125,-0.007376769557595253,-0.019693685695528984,0.9997785687446594,-0.0007534611504524946
0,1651541659,666433005,3.148999166122553,-0.027721550046113236,177.93396840767585,0.0439453125,-0.498046875,0.78515625,-12.51220703125,-9.21630859375,57.18994140625,0.0007371515384875238,-0.027467915788292885,0.9994601011276245,-0.01801510527729988
0,1651541659,705887837,4.0113333872817,-0.07160752983564178,174.83344501508358,-0.05322265625,-0.58154296875,1.0517578125,-14.34326171875,-15.625,79.16259765625,0.002201301045715809,-0.03493461757898331,0.9983725547790527,-0.045021966099739075
0,1651541659,765498148,5.10135175097981,-0.28221028973511575,168.70539929174814,0.146484375,-0.7314453125,1.17333984375,-11.90185546875,-33.63037109375,115.234375,0.006827648263424635,-0.04404475539922714,0.9941683411598206,-0.09819766879081726
0,1651541659,785693302,5.04732367398454,-0.07532503371419312,166.48612056624927,0.2890625,-0.46630859375,0.49951171875,15.380859375,9.8876953125,116.88232421875,0.005832833703607321,-0.0436488576233387,0.9920942783355713,-0.11751478910446167
0,1651541659,845522531,5.0791574781586775,-0.7112838939732274,158.19909302740783,0.87353515625,-0.83740234375,0.4013671875,-15.7470703125,3.35693359375,136.90185546875,0.01446800958365202,-0.042336564511060715,0.9810259938240051,-0.18864378333091736
0,1651541659,885559280,5.646215150978768,-0.18301419843897765,152.30179841499208,0.16650390625,-0.576171875,0.96728515625,13.48876953125,-15.380859375,134.8876953125,0.013338151387870312,-0.04743890091776848,0.969768762588501,-0.23899847269058228
0,1651541659,925882203,5.63098254846917,-0.5488258168520643,145.61390940614737,0.42822265625,-0.51416015625,1.107421875,-20.01953125,6.34765625,147.5830078125,0.019089113920927048,-0.04551032558083534,0.9542196989059448,-0.2950071692466736
0,1651541659,965505592,5.624605713105317,-0.3670706944174698,139.9546468863066,0.37158203125,-0.40673828125,1.16650390625,26.42822265625,-32.958984375,149.35302734375,0.019805166870355606,-0.04500295966863632,0.9384746551513672,-0.3418302536010742
0,1651541660,6823503,4.541101215441283,-0.7302536771758801,134.46429494464022,0.48876953125,0.33984375,1.21630859375,19.47021484375,-6.65283203125,136.5966796875,0.02120332233607769,-0.034066177904605865,0.921435534954071,-0.3864537477493286
0,1651541660,45335661,3.707842896135469,-0.22011957463104215,128.42169488782164,0.580078125,0.5849609375,1.1630859375,17.333984375,21.1181640625,121.03271484375,0.015803467482328415,-0.028293896466493607,0.8999552130699158,-0.4347761869430542
0,1651541660,107730768,3.050785528169412,0.21967311771511866,121.87838732332777,0.4443359375,0.5361328125,1.2021484375,0.91552734375,7.4462890625,85.693359375,0.011255228891968727,-0.024199437350034714,0.8737685680389404,-0.485609233379364
0,1651541660,145997931,2.3508776877848114,0.2989353686196407,118.88922333496339,0.53515625,0.6220703125,1.12109375,6.89697265625,1.953125,73.30322265625,0.008182627148926258,-0.018991097807884216,0.8609268069267273,-0.5083084106445312
0,1651541660,186359249,1.9752554898047796,0.33965204725279075,115.95664063368339,0.60009765625,0.54296875,0.8525390625,-5.31005859375,-0.54931640625,61.4013671875,0.006626779679208994,-0.016185270622372627,0.8476908206939697,-0.5302022099494934
0,1651541660,225871451,3.3621211319076374,0.49450414844418933,114.17834624175721,0.52490234375,-0.38818359375,0.8017578125,-2.5634765625,-0.18310546875,10.8642578125,0.012317730113863945,-0.026971369981765747,0.8390793204307556,-0.5432004928588867
0,1651541660,265766520,3.7595978007975943,0.5507212477075958,114.24203092557842,0.54248046875,-0.61083984375,0.8681640625,-4.39453125,27.89306640625,-11.5966796875,0.013773391023278236,-0.030155668035149574,0.8392718434333801,-0.542700469493866
0,1651541660,300743282,4.834389111514808,0.2549222699383132,116.48024293545657,0.31591796875,-0.5322265625,1.10595703125,-24.90234375,6.591796875,-67.81005859375,0.02030963823199272,-0.037030015140771866,0.8494535088539124,-0.5259706974029541
0,1651541660,346924627,5.627832123714502,0.7203597746371464,120.36931166772682,-0.1494140625,-0.7470703125,1.31982421875,-35.15625,9.27734375,-105.712890625,0.018960945308208466,-0.0457150898873806,0.8664156198501587,-0.49686479568481445
0,1651541660,407240392,5.7266585577022395,0.9869446192636828,127.29409895774424,0.0546875,-0.52587890625,0.865234375,-9.6435546875,17.63916015625,-141.41845703125,0.014465686865150928,-0.04857906326651573,0.8947336673736572,-0.44371435046195984
0,1651541660,446857414,5.912437995579294,1.195273072911888,133.9176066034724,0.3583984375,-0.359375,0.7822265625,32.2265625,36.80419921875,-143.61572265625,0.0105985002592206,-0.051532991230487823,0.918738603591919,-0.3913458287715912
0,1651541660,481219335,5.365517001092869,2.3320238043546375,141.02118092520408,-0.63623046875,-0.02880859375,1.06396484375,-0.18310546875,28.13720703125,-156.06689453125,-0.003549635410308838,-0.05089666694402695,0.9411571621894836,-0.33409586548805237
0,1651541660,530742755,4.052963817159751,2.0502121201906154,146.64603295200635,-0.291015625,1.0029296875,0.96826171875,51.26953125,-23.98681640625,-143.85986328125,-0.006981046870350838,-0.03899954631924629,0.9570039510726929,-0.2873563766479492
0,1651541660,560964070,3.260245231898901,2.30973476265877,153.20484504591616,-0.4501953125,0.615234375,0.736328125,13.3056640625,-5.0048828125,-137.3291015625,-0.013008372858166695,-0.03233550488948822,0.9720616936683655,-0.2321237176656723
0,1651541660,601421570,2.4955107854412395,2.074811686816651,157.95962659510718,-0.44384765625,0.732421875,0.68798828125,16.17431640625,-4.638671875,-117.61474609375,-0.013605230487883091,-0.024830734357237816,0.9810909628868103,-0.19146524369716644
0,1651541660,651028853,2.0682606816289626,1.3901143575485508,162.41692608518744,-0.19580078125,0.783203125,0.583984375,3.72314453125,-15.5029296875,-89.66064453125,-0.009228010661900043,-0.019688397645950317,0.9879838824272156,-0.15302009880542755
0,1651541660,686090276,2.1815558041563143,1.2238837748497193,165.948051923814,-0.4306640625,0.62744140625,0.974609375,8.544921875,-8.30078125,-70.3125,-0.008269676938652992,-0.020198646932840347,0.9922295212745667,-0.12249190360307693
0,1651541660,725869039,1.9456607070179377,1.1779332503216355,168.3074314895682,-0.4140625,0.64111328125,0.8837890625,0.6103515625,1.3427734375,-57.7392578125,-0.008494970388710499,-0.017935967072844505,0.9945850968360901,-0.10201353579759598
0,1651541660,765557636,1.8037910612110144,1.2957845359122089,170.49478591088643,-0.4267578125,0.638671875,1.06298828125,2.38037109375,1.64794921875,-43.76220703125,-0.00996327307075262,-0.016622034832835197,0.9963598251342773,-0.08301537483930588
0,1651541660,826331684,1.40882896915268,1.4266621661887602,172.65483323590297,-0.44873046875,0.5927734375,1.1787109375,5.859375,4.150390625,-26.2451171875,-0.011635717004537582,-0.013065244071185589,0.9977838397026062,-0.06419777870178223
0,1651541660,860874480,1.0701523316103054,1.436367544834231,173.61720688995777,-0.37451171875,0.57958984375,0.9775390625,-0.42724609375,-0.732421875,-17.578125,-0.01199449971318245,-0.010021264664828777,0.9983206391334534,-0.055781591683626175
0,1651541660,906143259,0.7904846865154326,1.4818163706234364,174.1219988507567,-0.36181640625,0.59423828125,0.9345703125,2.13623046875,0.244140625,-10.1318359375,-0.012559949420392513,-0.007551564835011959,0.9985728859901428,-0.05135636776685715
0,1651541660,945466459,0.5425283290764596,1.6024444482767373,174.41066996583814,-0.33837890625,0.53125,1.01318359375,0.42724609375,3.173828125,-3.7841796875,-0.013735909946262836,-0.005410124082118273,0.9986986517906189,-0.04881753399968147
0,1651541660,987704424,0.28140139256614527,1.7085660579065776,174.47921774434838,-0.341796875,0.53857421875,0.96630859375,-0.42724609375,1.28173828125,-0.3662109375,-0.014773902483284473,-0.0031705943401902914,0.9987239241600037,-0.04819035902619362
0,1651541661,25511544,0.07642251304570327,1.5327960488147652,174.40318407850782,0.009765625,0.30517578125,0.8916015625,-4.33349609375,-8.97216796875,1.220703125,-0.013327258639037609,-0.0013190886238589883,0.9987175464630127,-0.048826511949300766
0,1651541661,66386691,0.16571910558366076,0.9997939126397692,174.55695895748147,-0.05517578125,0.0498046875,1.0126953125,-7.62939453125,-3.23486328125,-4.8828125,-0.008646223694086075,-0.0018587493104860187,0.9988325238227844,-0.047492336481809616
0,1651541661,129688764,0.030059235650402992,0.9437986344418295,174.60933284803713,0.05712890625,0.04736328125,1.025390625,-3.72314453125,-4.08935546875,-0.3662109375,-0.008214656263589859,-0.0006493211258202791,0.998859703540802,-0.04702570661902428
0,1651541661,173394046,0.45564987029863135,0.8442542301784473,174.8742622255636,-0.11181640625,-0.33544921875,0.904296875,-10.31494140625,-4.5166015625,-6.2255859375,-0.007182216737419367,-0.004301636945456266,0.9989634156227112,-0.04474327340722084
0,1651541661,207780412,1.2158837023409304,0.7642447539106832,174.99191906420623,0.00048828125,-0.427734375,0.89599609375,-10.7421875,-2.9296875,0.06103515625,-0.006198945455253124,-0.010891382582485676,0.9989635944366455,-0.04375704750418663
0,1651541661,246535902,2.328838801767296,0.7941310470368673,175.07609431553746,0.02294921875,-0.5927734375,1.28466796875,-23.86474609375,4.08935546875,-3.60107421875,-0.006049308460205793,-0.020599935203790665,0.9988406300544739,-0.04308674484491348
0,1651541661,285677586,3.075231628982534,0.5021577489351589,175.44996521032562,-0.09814453125,-0.6220703125,0.7861328125,-4.82177734375,-5.92041015625,-8.85009765625,-0.003311943495646119,-0.02698572166264057,0.9988377690315247,-0.03979892656207085
0,1651541661,321922200,3.6999971432132397,0.5709414357760367,175.6592422064948,-0.0556640625,-0.44091796875,0.9169921875,-12.3291015625,-12.39013671875,-7.01904296875,-0.00375363533385098,-0.03244798630475998,0.9987432956695557,-0.03801170736551285
0,1651541661,366991419,4.030802414623998,0.7225611232623004,175.81779821788749,-0.06103515625,-0.595703125,0.98876953125,6.89697265625,-1.77001953125,-4.57763671875,-0.0050141881220042706,-0.03537394851446152,0.9986880421638489,-0.036686837673187256
0,1651541661,407065764,4.6693320406927485,0.9866527353983705,176.01646110008647,-0.13623046875,-0.638671875,1.38671875,-12.87841796875,23.86474609375,-3.5400390625,-0.007181939203292131,-0.04100921377539635,0.9985171556472778,-0.03507636860013008
0,1651541661,450518147,4.857985280663086,0.674336199101455,176.17141077159738,-0.0986328125,-0.50390625,0.79052734375,-2.01416015625,17.08984375,-3.0517578125,-0.004460390191525221,-0.04255323484539986,0.9985182881355286,-0.03362320736050606
0,1651541661,500943734,4.190764591212051,0.6469533303886392,176.4855038507696,0.060546875,0.22705078125,0.98779296875,17.27294921875,-6.04248046875,-8.1787109375,-0.004518082831054926,-0.036718402057886124,0.9988391399383545,-0.030850324779748917
0,1651541661,528407898,3.495227858452846,0.6002494039785912,176.65590341018307,-0.0732421875,0.595703125,0.81689453125,19.4091796875,-8.7890625,-7.9345703125,-0.004343628883361816,-0.030636249110102654,0.9990909695625305,-0.029324349015951157
0,1651541661,586919649,2.4105805847633044,0.657200801938627,177.07732608197287,-0.00048828125,0.67138671875,1.115234375,13.3056640625,5.18798828125,-6.16455078125,-0.0051955669187009335,-0.021173769608139992,0.9994341135025024,-0.025616900995373726
0,1651541661,626203749,1.6090274699761602,0.8470779264308658,177.2650470011215,-0.09228515625,0.7646484375,0.8486328125,19.71435546875,0.30517578125,-3.96728515625,-0.007054174318909645,-0.014212962239980698,0.9995868802070618,-0.023965468630194664
0,1651541661,666867529,1.2874009055928413,0.8785816937298735,177.38980723650093,-0.06689453125,0.68798828125,0.94287109375,2.01416015625,-4.638671875,-1.953125,-0.007408652920275927,-0.0114058256149292,0.9996461868286133,-0.022860221564769745
0,1651541661,706913908,1.7795641667815676,0.9071226530329768,177.50309275407477,-0.03662109375,-0.6884765625,0.5302734375,-43.5791015625,-4.5166015625,-1.77001953125,-0.007574889808893204,-0.015697283670306206,0.999608039855957,-0.021907446905970573
0,1651541661,742920886,2.6237770422990243,0.7305741090974889,177.63830317888434,-0.0654296875,-0.53466796875,1.04833984375,0.79345703125,-7.080078125,-4.0283203125,-0.005900583695620298,-0.023020798340439796,0.9995022416114807,-0.020748307928442955
0,1651541661,805543102,3.6534775785499294,0.7776759473875431,177.79736462427562,0.0126953125,-0.49853515625,1.0078125,-3.0517578125,3.23486328125,-2.25830078125,-0.00616906862705946,-0.03200095146894455,0.9992799758911133,-0.019426550716161728
0,1651541661,826650502,3.871995393779324,0.906257246720795,177.8507767035851,-0.0703125,-0.4677734375,1.11279296875,-7.6904296875,5.615234375,-2.5634765625,-0.007269036956131458,-0.03392434120178223,0.99921715259552,-0.019010258838534355
0,1651541661,866054332,4.337539806946924,0.6964437605366409,177.99977045013975,0.04052734375,-0.4423828125,0.9931640625,-7.9345703125,-7.9345703125,-5.79833984375,-0.005411785561591387,-0.03794268146157265,0.9991089701652527,-0.017671536654233932
0,1651541661,925631015,5.000220981920839,0.9130378102976193,178.264290016316,-0.13671875,-0.45068359375,1.009765625,2.38037109375,-5.126953125,-4.0283203125,-0.007298493757843971,-0.04373548924922943,0.998896598815918,-0.015478970482945442
0,1651541661,965958962,5.506509181034858,0.953368903407781,178.48046550354692,-0.09130859375,-0.59814453125,1.1044921875,-5.615234375,10.8642578125,-5.0048828125,-0.0076723587699234486,-0.04813917353749275,0.9987179636955261,-0.013643927872180939
0,1651541662,1577056,5.647908184119285,0.8105792631361688,178.67527615905402,-0.0380859375,-0.3583984375,0.68017578125,1.46484375,-9.33837890625,-7.26318359375,-0.006494993343949318,-0.049344491213560104,0.9986899495124817,-0.011894289404153824
0,1651541662,43119678,5.466524399859957,0.7328985612102618,178.95975353798505,-0.11669921875,0.083984375,1.283203125,16.78466796875,-10.07080078125,-2.0751953125,-0.005955285392701626,-0.04774138331413269,0.9987980723381042,-0.009372254833579063
0,1651541662,87293641,4.458497334505972,-0.10934381140175316,178.21781740920324,0.091796875,0.1044921875,1.10498046875,-5.92041015625,-1.64794921875,31.67724609375,0.0015583018539473414,-0.038878362625837326,0.9991224408149719,-0.015502970665693283
0,1651541662,145825837,5.475283690583676,-1.1035158847151136,174.45240242166693,0.197265625,-0.37841796875,1.20068359375,-7.38525390625,3.5400390625,65.7958984375,0.011918853968381882,-0.0472390279173851,0.9976644515991211,-0.04787607863545418
0,1651541662,165709379,5.574113966552821,-0.9102247328549261,173.1007079849214,-0.00244140625,-0.38330078125,0.892578125,6.591796875,-3.662109375,73.8525390625,0.010845042765140533,-0.04805711656808853,0.996999204158783,-0.059712786227464676
0,1651541662,225886184,6.214382302652163,-1.0774046051266837,168.04112241382938,0.30078125,0.1357421875,0.984375,15.44189453125,-8.7890625,50.9033203125,0.014983371831476688,-0.0529288649559021,0.993106484413147,-0.10350701212882996
0,1651541662,265795364,5.180098282581357,-0.822161022812689,166.59936510268807,-0.22802734375,0.5703125,0.7216796875,34.97314453125,-3.0517578125,33.87451171875,0.012390767224133015,-0.04404343664646149,0.9921677112579346,-0.1162320077419281
0,1651541662,300984900,4.228855275552742,-0.26997501969324283,165.59973959690004,-0.2109375,0.7080078125,0.60205078125,9.1552734375,11.16943359375,13.97705078125,0.006960087455809116,-0.036309219896793365,0.9914471507072449,-0.12516355514526367
0,1651541662,345299967,3.40598738152181,-0.1756529087001435,165.05348838783908,0.07763671875,0.7998046875,0.80029296875,17.51708984375,2.86865234375,10.19287109375,0.005384448450058699,-0.029266713187098503,0.9910725951194763,-0.12996064126491547
0,1651541662,400782374,3.0391678032780436,0.06291258563040317,164.76756300880402,0.00146484375,0.55517578125,1.00048828125,0.48828125,3.47900390625,3.84521484375,0.002970718080177903,-0.026357421651482582,0.9908273816108704,-0.13250479102134705
0,1651541662,425418963,2.3705648542937268,0.14779248703438216,164.58868035444138,-0.10009765625,0.83447265625,0.6865234375,4.5166015625,2.44140625,4.94384765625,0.0014957968378439546,-0.020671691745519638,0.9907535910606384,-0.13408179581165314
0,1651541662,463865817,2.4864155347877213,0.25156584561106016,164.43978223053512,-0.06640625,0.59375,0.96630859375,-19.53125,-4.8828125,3.662109375,0.0007624622667208314,-0.021793708205223083,0.9905529022216797,-0.13538670539855957
0,1651541662,525579979,3.993799864795454,-0.21016410700828578,164.42489241814448,-0.02490234375,-0.53466796875,0.9072265625,-4.8828125,-4.69970703125,0.67138671875,0.006537569686770439,-0.034275636076927185,0.990182638168335,-0.13535457849502563
0,1651541662,565554655,4.629488559056303,-0.4180831361724736,163.63485809722744,-0.0654296875,-0.39697265625,1.03125,3.35693359375,-27.52685546875,26.85546875,0.009356793947517872,-0.03945862129330635,0.9890263676643372,-0.1420648843050003
0,1651541662,629041762,5.580151000005466,-0.8346300133902232,160.53367900647484,0.08935546875,-0.39599609375,1.28759765625,2.38037109375,-24.2919921875,62.01171875,0.015399176627397537,-0.046744946390390396,0.9844712615013123,-0.16850556433200836
0,1651541662,670247943,5.625005279171763,-1.389128462430542,157.21136571115395,0.4697265625,-0.51318359375,0.97021484375,-43.15185546875,29.47998046875,81.4208984375,0.021562013775110245,-0.04570512846112251,0.9791556000709534,-0.1967245638370514
0,1651541662,725944981,6.38682878438253,-1.002220550785828,152.98880616246865,0.3154296875,-0.59814453125,0.69873046875,-18.310546875,17.4560546875,72.265625,0.021500132977962494,-0.05212486907839775,0.970913827419281,-0.23269502818584442
0,1651541662,765141795,6.083226022001816,-1.4148678168743234,150.13283086291952,0.2802734375,0.17529296875,0.83984375,4.39453125,2.13623046875,62.68310546875,0.0255857203155756,-0.04808792099356651,0.9649593830108643,-0.25668367743492126
0,1651541662,805469294,6.017066675266958,-1.7328283839423437,147.19326770830776,0.4111328125,0.20166015625,0.78759765625,-7.75146484375,-0.1220703125,65.24658203125,0.029305608943104744,-0.04607835412025452,0.9580898284912109,-0.2812151312828064
0,1651541662,885590146,5.696648414036496,-1.1852138050900458,141.45973371143228,-0.02197265625,0.4013671875,1.072265625,-0.42724609375,-10.07080078125,77.5146484375,0.026149874553084373,-0.04349642992019653,0.9429261088371277,-0.3291119635105133
0,1651541662,920622101,4.321942216203554,-1.5986719426990688,138.42647402178628,0.4970703125,0.51318359375,1.16162109375,35.82763671875,9.27734375,69.82421875,0.026413854211568832,-0.03030182421207428,0.9343385696411133,-0.35411229729652405
0,1651541662,966042575,2.3952077499323097,-0.5937122726126544,135.93630999380468,0.29296875,0.56298828125,1.21533203125,38.9404296875,4.94384765625,51.57470703125,0.01264186855405569,-0.017430972307920456,0.9268012642860413,-0.3749346435070038
0,1651541663,25946100,0.001172924282068523,0.06782966816236444,133.5744715599493,0.17578125,0.64013671875,0.7744140625,17.39501953125,1.8310546875,25.390625,-0.0005399732617661357,-0.00024271258735097945,0.9190474152565002,-0.39414671063423157
0,1651541663,61522823,0.21400335367270729,-0.4382816330542145,133.36374656367607,0.01806640625,-0.576171875,1.29833984375,-16.90673828125,-0.18310546875,-13.36669921875,0.004251545295119286,-0.00020102095731999725,0.9183157086372375,-0.39582595229148865
0,1651541663,105598686,0.40833317453441265,-0.8549146080081034,134.32920746323572,0.2099609375,-0.39892578125,0.69287109375,3.90625,8.4228515625,-32.04345703125,0.00825855229049921,-0.0003887179191224277,0.9216024279594421,-0.3880472779273987
0,1651541663,145583505,1.232820543770152,-0.20777862342001915,136.62245713744582,0.09033203125,-0.3916015625,0.919921875,-10.1318359375,1.46484375,-67.7490234375,0.0056605832651257515,-0.009326480329036713,0.9291568994522095,-0.3695245385169983
0,1651541663,186034925,1.8099388717942604,0.2924746766754698,140.3105817043343,-0.216796875,-0.52197265625,1.0068359375,-5.43212890625,5.37109375,-90.087890625,0.0029611620120704174,-0.01572241261601448,0.9404821395874023,-0.3394664525985718
0,1651541663,246228880,2.215049130855353,1.2424369165130011,147.19231148182396,-0.7626953125,0.083984375,0.765625,14.70947265625,12.5732421875,-109.9853515625,-0.004940594080835581,-0.021602177992463112,0.959000289440155,-0.282537579536438
0,1651541663,285500694,2.4427117156097484,1.508714936235416,151.43648174904317,-0.43994140625,-0.453125,1.0,-8.85009765625,-3.23486328125,-117.919921875,-0.007498080376535654,-0.023901619017124176,0.9687209725379944,-0.2468850463628769
0,1651541663,325328187,2.0782451375350517,2.0758357883053296,156.72976907277632,-0.53076171875,-0.26318359375,1.0986328125,23.62060546875,18.1884765625,-119.56787109375,-0.0140821048989892,-0.02141217514872551,0.979063868522644,-0.20193378627300262
0,1651541663,346753565,1.549474090107467,2.8148330147533254,158.96018100662235,-0.75,0.11474609375,1.02294921875,17.822265625,28.38134765625,-115.66162109375,-0.02167859673500061,-0.017773989588022232,0.9827444553375244,-0.18283191323280334
0,1651541663,405449806,-0.12800059985166862,2.6469343717931295,166.49953505777918,-0.28173828125,0.59619140625,0.7275390625,21.3623046875,4.82177734375,-125.42724609375,-0.02306794375181198,-0.0016058544861152768,0.9928054809570312,-0.1174844354391098
0,1651541663,445567314,-0.2651452755372505,2.705474855952251,171.16038784550418,-0.25439453125,0.71728515625,1.0185546875,8.36181640625,-19.22607421875,-115.966796875,-0.023715520277619362,0.00048702346975915134,0.9967499375343323,-0.0769876092672348
0,1651541663,485376409,-0.6024232717645064,2.640435233354451,175.84115746484892,-0.4892578125,0.69970703125,0.88525390625,4.57763671875,-13.3056640625,-93.56689453125,-0.023215318098664284,0.004416259471327066,0.9990668296813965,-0.0361536368727684
0,1651541663,526819714,-0.7851596469229085,1.9637592142145905,179.57676550684732,-0.23876953125,0.63330078125,0.96435546875,-12.75634765625,-5.859375,-78.857421875,-0.01716097630560398,0.00678741279989481,0.9998233914375305,-0.0035754176788032055
0,1651541663,565215213,-0.535727435014684,1.9816097001670072,-177.82505421117082,-0.365234375,0.74755859375,0.93359375,-12.6953125,-6.4697265625,-60.85205078125,-0.01719992607831955,0.00500172283500433,0.9996579885482788,0.019056588411331177
0,1651541663,605033811,1.3150363845832418,2.552906572584149,-175.5593848408292,-0.56591796875,-0.4541015625,1.39501953125,-42.236328125,-10.8642578125,-39.48974609375,-0.022702757269144058,-0.010601167567074299,0.998945415019989,0.03847431391477585
0,1651541663,647587355,2.4232858038365857,2.5269420353411687,-174.41704936252293,-0.43017578125,-0.49609375,0.9228515625,-19.95849609375,-5.06591796875,-20.44677734375,-0.023048415780067444,-0.020041735842823982,0.9983699917793274,0.04821273684501648
0,1651541663,685662924,3.4195124367389043,2.1283087166039527,-174.52931035172125,-0.32275390625,-0.70263671875,1.49658203125,-25.146484375,-19.59228515625,19.4091796875,-0.019966138526797295,-0.028911404311656952,0.9982702136039734,0.047139737755060196
0,1651541663,725235823,4.058805336447404,1.3082508050862458,-176.63981148449852,-0.0859375,-0.462890625,0.95068359375,-6.591796875,-36.2548828125,67.2607421875,-0.012442516162991524,-0.03506031259894371,0.9988899827003479,0.02889462374150753
0,1651541663,765278267,4.4807445412931735,0.7917391468060406,-179.80687457998505,0.14599609375,-0.13623046875,0.7080078125,3.2958984375,-20.01953125,86.669921875,-0.006969762500375509,-0.03907928615808487,0.9992108345031738,0.0014139128616079688
0,1651541663,806875826,4.987380226281216,0.04695283144341014,175.51048068637192,0.3740234375,-0.36474609375,0.7802734375,-16.357421875,-16.4794921875,104.30908203125,0.0012951542157679796,-0.04349200427532196,0.9982856512069702,-0.03914913907647133
0,1651541663,841031755,5.612253742878172,-0.622060599236822,170.3731675625252,0.486328125,-0.16015625,1.26025390625,-1.8310546875,-28.076171875,117.24853515625,0.009510786272585392,-0.048328232020139694,0.9952860474586487,-0.08354447036981583
0,1651541663,908872980,4.311779321605398,-1.0130946388313113,163.46451317932733,0.3837890625,0.5625,0.833984375,12.20703125,-6.7138671875,110.29052734375,0.014152019284665585,-0.03595566377043724,0.9889156818389893,-0.14336255192756653
0,1651541663,941640558,3.9576818244644265,-0.976626871470438,159.45526043842153,0.29541015625,0.5029296875,1.091796875,-6.591796875,-6.7138671875,103.82080078125,0.014538473449647427,-0.03245679661631584,0.9834011793136597,-0.17792536318302155
0,1651541663,987941794,3.326436808588906,-1.1889267599558884,154.9293448679393,0.41015625,0.5478515625,1.083984375,11.41357421875,-2.99072265625,97.47314453125,0.01642276719212532,-0.026080265641212463,0.9757640361785889,-0.2166445106267929
0,1651541664,20717947,2.723273902042481,-0.7774757374674971,151.5569389652455,0.0791015625,0.75732421875,0.7744140625,4.638671875,5.31005859375,86.42578125,0.012412632815539837,-0.021367687731981277,0.9690966606140137,-0.24544037878513336
0,1651541664,66830181,2.3855460204645036,-0.3994332246024745,148.18122725099343,0.26025390625,0.74169921875,0.921875,6.65283203125,8.544921875,67.9931640625,0.009057528339326382,-0.019063567742705345,0.9615021347999573,-0.273985892534256
0,1651541664,105829290,2.1232904485546973,-0.30947877945976027,146.0120001517324,0.37548828125,0.57421875,0.9033203125,-10.986328125,0.1220703125,49.6826171875,0.007997570559382439,-0.016929849982261658,0.9561823010444641,-0.29217252135276794
0,1651541664,145268925,3.235435850399299,-0.41439779554800216,144.50720019455187,0.376953125,-0.33251953125,1.34228515625,-27.34375,7.568359375,16.11328125,0.012047645635902882,-0.02578539401292801,0.9520602226257324,-0.3045837879180908
0,1651541664,180438944,3.773102365447179,0.15030875807308394,144.86202852193404,0.15625,-0.43994140625,0.87255859375,-10.19287109375,21.66748046875,-33.75244140625,0.008687368594110012,-0.0317806750535965,0.9528235793113708,-0.301731139421463
0,1651541664,220741005,4.326366471238429,0.3076238494915729,147.0159150163192,0.08349609375,-0.396484375,0.8740234375,-7.9345703125,16.54052734375,-70.37353515625,0.008143053390085697,-0.03695422783493996,0.9581436514854431,-0.28377610445022583
0,1651541664,265013229,4.910471015566403,1.0520607613245283,150.9216903912993,-0.421875,-0.38232421875,1.1591796875,1.03759765625,17.39501953125,-96.25244140625,0.0018752040341496468,-0.043767884373664856,0.9669482111930847,-0.2511812448501587
0,1651541664,325360510,5.572488808417181,1.7661735809137575,157.68109148075405,-0.3349609375,-0.484375,0.994140625,-0.54931640625,3.60107421875,-118.10302734375,-0.005696011707186699,-0.05066455528140068,0.9796711802482605,-0.19402346014976501
0,1651541664,366064029,5.911216672378331,2.194659948965807,163.1284268910277,-0.162109375,-0.37939453125,0.95751953125,10.19287109375,21.05712890625,-122.74169921875,-0.011355617083609104,-0.05380072072148323,0.9875390529632568,-0.14745569229125977
0,1651541664,408094498,6.023457597895974,2.415342293831861,168.11360438130157,-0.2373046875,-0.43505859375,0.9814453125,14.09912109375,24.90234375,-131.04248046875,-0.015495086088776588,-0.054425645619630814,0.9929159879684448,-0.1044779121875763
0,1651541664,445251038,5.144206492266586,2.8770257291276993,174.05249484576268,-0.54296875,0.49951171875,0.94580078125,34.24072265625,6.04248046875,-120.849609375,-0.022717690095305443,-0.046103086322546005,0.9972744584083557,-0.0529349185526371
0,1651541664,487614300,4.610238951541091,2.7179960868047655,178.70347117994783,-0.513671875,0.5263671875,1.609375,5.2490234375,33.02001953125,-123.291015625,-0.02324112132191658,-0.04047530144453049,0.998835027217865,-0.012255644425749779
0,1651541664,544950475,3.859537982506867,1.6346491103784648,-174.851982148491,-0.22607421875,0.57421875,1.3671875,7.01904296875,-1.89208984375,-85.3271484375,-0.015754206106066704,-0.032996803522109985,0.9983444809913635,0.044399917125701904
0,1651541664,585406343,2.9920917916407888,1.265839065600169,-171.40914333507604,-0.20703125,0.677734375,1.07080078125,4.69970703125,3.662109375,-69.64111328125,-0.012966868467628956,-0.025205958634614944,0.9968119859695435,0.07458151131868362
0,1651541664,645274640,2.2380702834528807,1.0851252802097369,-167.79463454706197,-0.32080078125,0.69091796875,0.9052734375,9.6435546875,-6.4697265625,-45.71533203125,-0.011490016244351864,-0.018411559984087944,0.9941183924674988,0.10610172897577286
0,1651541664,685385268,1.8897208173852984,0.8208262010776275,-166.46410003636515,-0.24951171875,0.6767578125,0.90380859375,5.79833984375,-11.71875,-29.052734375,-0.009055409580469131,-0.015530812554061413,0.9928850531578064,0.11771217733621597
0,1651541664,720099020,2.35285225278518,0.7608884096247095,-166.0865135186685,-0.53076171875,-0.96728515625,0.77197265625,-36.92626953125,-13.0615234375,23.01025390625,-0.009076349437236786,-0.01957540400326252,0.9924232959747314,0.12095647305250168
0,1651541664,785790031,3.875874514341068,0.6633772139390225,-169.89187145247107,-0.07958984375,-0.5322265625,1.068359375,-15.68603515625,-24.96337890625,80.078125,-0.008742296136915684,-0.03317519277334213,0.9955428838729858,0.08784883469343185
0,1651541664,825119022,4.197831702568898,0.29982852257532566,-173.90481249552866,0.3037109375,-0.3759765625,0.93212890625,-6.591796875,-10.25390625,93.994140625,-0.004558207932859659,-0.036433860659599304,0.9979174733161926,0.05303390324115753
0,1651541664,886881466,5.089832210057761,0.09289536851882697,-179.76152212389616,0.146484375,-0.47509765625,1.0859375,3.2958984375,-2.44140625,97.900390625,-0.0009022699669003487,-0.044400762766599655,0.9990113973617554,0.002043057233095169
0,1651541664,927208773,5.457722847340749,-0.33554235444570585,176.29129425190945,0.45751953125,-0.4482421875,1.037109375,-20.99609375,-17.76123046875,101.806640625,0.004463893361389637,-0.04748982936143875,0.9983431696891785,-0.032182782888412476
0,1651541664,981590444,5.893538008372222,-0.658120743042463,169.41047971976857,0.5830078125,-0.39599609375,0.91796875,-14.34326171875,-5.4931640625,117.37060546875,0.010454931296408176,-0.050658684223890305,0.9944273829460144,-0.0918620228767395
0,1651541665,22759765,5.9131462008188596,-0.7616560054935426,164.23206251749667,0.50146484375,0.10693359375,0.78271484375,30.1513671875,-39.794921875,115.3564453125,0.01364987250417471,-0.05017988383769989,0.9892545938491821,-0.1366422474384308
0,1651541665,60813449,4.831270276385051,-0.7355300516705678,160.0357855367376,-0.24853515625,0.693359375,0.49072265625,3.84521484375,13.427734375,105.95703125,0.013621742837131023,-0.040397774428129196,0.9840133786201477,-0.17291653156280518
0,1651541665,105931206,4.384210916432444,-0.4000174459003486,155.6360235602255,0.15966796875,0.6689453125,0.60595703125,8.30078125,9.94873046875,83.1298828125,0.011481099762022495,-0.03665250912308693,0.9767891764640808,-0.21073131263256073
0,1651541665,165180663,3.451388289265119,0.3565655166284464,151.56670613575864,0.03662109375,0.734375,0.8984375,7.080078125,13.36669921875,47.30224609375,0.004380800761282444,-0.029955895617604256,0.9689067006111145,-0.24556729197502136
0,1651541665,205826652,2.8764494319164795,0.5601341555183725,150.03448979924968,0.15869140625,0.8212890625,0.68994140625,6.9580078125,8.1787109375,35.15625,0.0017683481564745307,-0.025508858263492584,0.9656561613082886,-0.2585623860359192
0,1651541665,244986863,2.713226907216804,0.8204891205699169,148.87742843309283,0.1923828125,0.68115234375,1.02392578125,4.150390625,0.0,20.20263671875,-0.0005445166025310755,-0.024727018550038338,0.963003933429718,-0.2683502435684204
0,1651541665,306351530,2.496788030816032,0.7020503853498694,148.40620002187532,0.5673828125,-0.13525390625,0.8408203125,-11.65771484375,-16.17431640625,-10.92529296875,3.7161495129112154e-05,-0.022631049156188965,0.9619500041007996,-0.27228695154190063
0,1651541665,346014210,4.076131818824434,1.385495335400624,149.89254480791845,-0.06494140625,-0.396484375,1.07177734375,-10.43701171875,9.33837890625,-45.22705078125,-0.002432099776342511,-0.03747870773077011,0.9648895859718323,-0.2599567174911499
0,1651541665,392051124,4.680922871714261,1.5791139094541489,152.16206640495196,-0.10546875,-0.43359375,0.95458984375,-4.5166015625,13.24462890625,-66.34521484375,-0.0035416774917393923,-0.04294651001691818,0.9695997834205627,-0.24087205529212952
0,1651541665,445244326,5.698042626400825,2.0112591244672093,157.1484186877631,-0.18115234375,-0.51904296875,1.14111328125,-7.99560546875,6.04248046875,-88.19580078125,-0.00733672920614481,-0.05218423902988434,0.9786469340324402,-0.19867829978466034
0,1651541665,486449994,6.072987568435967,2.200379378622046,161.44389733602742,-0.10107421875,-0.6474609375,0.837890625,-4.08935546875,9.33837890625,-104.6142578125,-0.010384073480963707,-0.05536067485809326,0.9851862788200378,-0.16197358071804047
0,1651541665,527838074,6.406909113655544,2.310782342922721,165.61669212642,-0.30908203125,-0.32275390625,0.77392578125,6.8359375,9.21630859375,-114.07470703125,-0.012979783117771149,-0.057951170951128006,0.990240216255188,-0.12608562409877777
0,1651541665,561325761,6.635834429632745,2.312641648480845,171.05088625273052,-0.373046875,-0.54833984375,1.3017578125,-3.47900390625,6.8359375,-123.1689453125,-0.015570629388093948,-0.0592598132789135,0.9949872493743896,-0.07903414219617844
0,1651541665,625392801,5.043577742111611,1.858390312775627,178.09048902269586,-0.2470703125,0.560546875,0.64453125,5.92041015625,11.8408203125,-109.4970703125,-0.015465790405869484,-0.04425736889243126,0.9987497329711914,-0.01735791750252247
0,1651541665,666181526,4.611122180378138,1.8630826527354256,-177.6119796298231,-0.39794921875,0.61962890625,0.95556640625,-0.91552734375,5.2490234375,-86.3037109375,-0.01707923226058483,-0.039876215159893036,0.9988551735877991,0.02016444317996502
0,1651541665,725047123,4.240391465060894,1.1867949938829039,-174.328707695798,-0.234375,0.6279296875,0.912109375,0.244140625,-14.09912109375,-42.6025390625,-0.012166926637291908,-0.036436669528484344,0.9980573058128357,0.049051981419324875
0,1651541665,771267728,3.7644775440727454,0.9157912303067808,-172.9160743112776,-0.03564453125,0.6689453125,1.07861328125,-1.15966796875,-1.5869140625,-26.79443359375,-0.010001237504184246,-0.03228810802102089,0.9975357055664062,0.061482254415750504
0,1651541665,826703389,4.090390692490482,0.5930082295196141,-172.0159100201833,-0.15234375,-0.40283203125,1.84228515625,-32.1044921875,7.01904296875,6.77490234375,-0.007643583230674267,-0.03524070605635643,0.9969377517700195,0.06938838958740234
0,1651541665,867735286,4.887916450266551,-0.16470356851187093,-173.1248458734482,-0.080078125,-0.4794921875,0.96435546875,-6.40869140625,-24.5361328125,39.794921875,-0.0011234505800530314,-0.04265151917934418,0.9972881078720093,0.059967655688524246
0,1651541665,902823362,5.326855995956482,-0.7300113655429032,-175.03859657699408,0.19140625,-0.3896484375,0.939453125,0.3662109375,-13.36669921875,53.955078125,0.00434639910236001,-0.04669979214668274,0.9979506134986877,0.043530963361263275
0,1651541665,965165323,5.880248594681493,-1.1728278973604624,-179.4332768927637,0.234375,-0.3662109375,1.2265625,-12.20703125,-7.38525390625,74.5849609375,0.009967423044145107,-0.051339566707611084,0.998616635799408,0.005463719833642244
0,1651541666,5502645,6.323937256278699,-1.2084539506278373,177.01851815321905,0.111328125,-0.373046875,1.1328125,6.103515625,-8.23974609375,88.07373046875,0.011960831470787525,-0.054863087832927704,0.9980993270874023,-0.025392847135663033
0,1651541666,70672852,7.692382731963678,-1.1881344580121669,170.92052526223168,0.13330078125,-0.513671875,1.35205078125,-9.1552734375,6.16455078125,98.44970703125,0.015621433034539223,-0.06604546308517456,0.9946190118789673,-0.0782746970653534
0,1651541666,105528988,7.7918806589241925,-1.305401335541881,166.81805409953355,0.53076171875,-0.4814453125,0.71826171875,-5.126953125,-11.3525390625,112.73193359375,0.01908830925822258,-0.06618666648864746,0.9911198019981384,-0.11373908072710037
0,1651541666,161856065,7.860006673253192,-1.036223900516796,159.7285909486271,0.52294921875,-0.55126953125,0.90771484375,5.0048828125,-15.0146484375,120.60546875,0.020941369235515594,-0.065877765417099,0.9821478724479675,-0.17494907975196838
0,1651541666,205978162,7.216238292091042,-0.9468296376077285,154.41314649122643,0.4462890625,-0.2802734375,0.40283203125,14.70947265625,-18.37158203125,125.06103515625,0.021976426243782043,-0.05954154208302498,0.9733237028121948,-0.22048312425613403
0,1651541666,265520321,6.9990822458274184,-0.17976206789869953,146.30446885199234,0.20703125,-0.166015625,1.3017578125,19.4091796875,-9.09423828125,125.48828125,0.019189933314919472,-0.0579666942358017,0.9553201198577881,-0.28919729590415955
0,1651541666,305595785,5.271544270284073,-0.7310571315378557,141.3397409480935,0.19580078125,0.78076171875,0.3583984375,36.62109375,-4.5166015625,123.96240234375,0.021235397085547447,-0.04128389060497284,0.9427066445350647,-0.3303769528865814
0,1651541666,345415759,4.550752699625335,0.005819002675260173,135.8414250058549,0.4140625,0.623046875,0.80810546875,6.28662109375,17.7001953125,113.28125,0.014876678586006165,-0.03680985048413277,0.9259331822395325,-0.3755948543548584
0,1651541666,410636777,3.4607584550327304,1.128572540407011,129.45189232033468,0.12744140625,0.81884765625,0.6005859375,8.85009765625,8.30078125,80.99365234375,0.00398991396650672,-0.03150727227330208,0.9036928415298462,-0.4270021319389343
0,1651541666,465250549,3.2732644262305914,1.7635758678733313,125.52188343417937,0.224609375,0.7109375,1.02392578125,-6.4697265625,6.34765625,59.26513671875,-0.0006064671324566007,-0.03243143483996391,0.8884354829788208,-0.45785409212112427
0,1651541666,506129119,3.9802043732525436,1.7400706256183787,123.76125191144685,0.7685546875,-0.3974609375,1.103515625,-36.376953125,16.845703125,8.72802734375,0.002981159370392561,-0.03777666762471199,0.8810854554176331,-0.47143658995628357
0,1651541666,550787762,4.9704336731767675,1.5991378896665107,124.94829780806005,0.35888671875,-0.462890625,0.9091796875,-15.2587890625,9.70458984375,-49.62158203125,0.007674181368201971,-0.044892504811286926,0.8856023550033569,-0.462205708026886
0,1651541666,581101930,5.513990799496961,1.8841734231187788,127.91086503979639,0.1162109375,-0.32275390625,1.23388671875,0.732421875,12.26806640625,-96.25244140625,0.006361391395330429,-0.05042054504156113,0.8969443440437317,-0.4392131567001343
0,1651541666,644774072,6.3840518855980966,2.727185466002783,135.13083944536342,-0.30908203125,-0.380859375,1.1923828125,-3.5400390625,13.00048828125,-120.1171875,-0.0007177385850809515,-0.06052117794752121,0.9221147894859314,-0.382153183221817
0,1651541666,701779182,7.4026956262432195,3.2072030500216395,143.20868561068406,-0.4033203125,-0.36279296875,0.8994140625,-0.54931640625,17.7001953125,-133.544921875,-0.006134734023362398,-0.0700458213686943,0.945979654788971,-0.3165096640586853
0,1651541666,745840199,8.258143522615113,3.324181138615509,148.46301353539147,-0.49951171875,-0.48486328125,1.11328125,-14.70947265625,9.1552734375,-140.80810546875,-0.008282097056508064,-0.07712635397911072,0.9588983058929443,-0.27294161915779114
0,1651541666,790401925,9.177538211317604,2.784697579804994,154.8853447893061,-0.361328125,-0.60302734375,1.216796875,-6.8359375,13.61083984375,-145.81298828125,-0.006252458319067955,-0.08333270996809006,0.9722403287887573,-0.21855297684669495
0,1651541666,845928711,8.68749006761576,2.416496595801593,164.65442775539194,-0.45703125,-0.29443359375,0.75244140625,44.189453125,6.4697265625,-156.67724609375,-0.010727311484515667,-0.0778525099158287,0.9877670407295227,-0.13468511402606964
0,1651541666,886392962,6.76872216323769,2.0554513021708383,170.10342973182304,-0.3310546875,0.6005859375,0.70751953125,81.60400390625,-19.775390625,-137.02392578125,-0.012746977619826794,-0.06034883111715317,0.9942841529846191,-0.08714719861745834
0,1651541666,945054519,4.752369211753533,1.7607553199112334,179.18527272400053,-0.59228515625,0.50537109375,1.4248046875,19.34814453125,7.75146484375,-132.26318359375,-0.015056542120873928,-0.04156355932354927,0.9989925026893616,-0.007739902939647436
0,1651541666,985951519,3.707884304157312,0.9307186087378436,-175.37450528037533,-0.47705078125,0.716796875,0.86572265625,17.15087890625,-3.35693359375,-118.34716796875,-0.009416580200195312,-0.031996749341487885,0.9986401200294495,0.0400690957903862
0,1651541667,25618711,3.363245551799751,0.8174676156358325,-171.25172113508557,-0.478515625,0.60595703125,1.095703125,6.2255859375,0.42724609375,-101.86767578125,-0.009347953833639622,-0.028715575113892555,0.9966484904289246,0.07602547854185104
0,1651541667,85173316,2.7253588172866277,0.3213466066686277,-166.00019358793787,-0.44189453125,0.63427734375,0.95068359375,3.84521484375,-4.69970703125,-71.22802734375,-0.005680709145963192,-0.02326199971139431,0.9922698736190796,0.12176653742790222
0,1651541667,124897621,2.5493621312917356,0.34205792802707485,-163.21650901056415,-0.5439453125,0.5830078125,0.947265625,-1.64794921875,4.8828125,-58.59375,-0.006198836024850607,-0.021571746096014977,0.9890538454055786,0.14583806693553925
0,1651541667,164821199,2.5225130845512385,0.41568501940228514,-160.80625819587172,-0.5048828125,0.58740234375,0.93408203125,-4.638671875,1.77001953125,-52.30712890625,-0.007245481945574284,-0.02109849452972412,0.9857732057571411,0.1665947139263153
0,1651541667,225680100,2.610766599147208,0.37986051712300956,-158.03366584571012,-0.51513671875,0.54833984375,1.01513671875,-5.37109375,-4.94384765625,-34.3017578125,-0.0075936149805784225,-0.021732468158006668,0.9814374446868896,0.19039595127105713
0,1651541667,265761772,2.6635567043554134,0.40878292648300213,-156.9465456166542,-0.53369140625,0.525390625,0.98486328125,-7.32421875,-6.103515625,-24.2919921875,-0.008138674311339855,-0.02206028439104557,0.9795772433280945,0.19968855381011963
0,1651541667,325396304,3.949830522013497,0.43515492719865606,-155.6773462047041,-0.388671875,-0.5419921875,1.27392578125,-25.634765625,-9.82666015625,-12.6953125,-0.010969883762300014,-0.032888807356357574,0.9769981503486633,0.210410475730896
0,1651541667,364816612,4.7217930161603245,-0.027251437597092646,-156.02951075830995,-0.08642578125,-0.525390625,1.00390625,-10.8642578125,-21.30126953125,26.42822265625,-0.008321857079863548,-0.040345121175050735,0.9773687124252319,0.2074931561946869
0,1651541667,424760324,6.052053892403524,-0.9297474412152325,-158.49759961489406,0.10009765625,-0.47802734375,0.9990234375,-8.544921875,-7.01904296875,51.7578125,-0.0018873299704864621,-0.05337264761328697,0.9809644818305969,0.18669910728931427
0,1651541667,460545440,6.2190767770460775,-1.450601979229655,-160.7362487568791,-0.00244140625,0.263671875,1.20068359375,22.64404296875,-43.3349609375,60.48583984375,0.0033863235730677843,-0.05559094622731209,0.9842577576637268,0.1677345633506775
0,1651541667,504884696,4.867700797870606,-1.5488687645922747,-163.09342900172052,0.0810546875,0.755859375,1.16357421875,1.03759765625,3.47900390625,45.0439453125,0.007115068379789591,-0.043985847383737564,0.9880691766738892,0.14742475748062134
0,1651541667,574131613,3.940642210032537,-1.6319915264610951,-165.25006123215206,-0.01611328125,0.67236328125,0.9150390625,4.2724609375,-1.3427734375,25.390625,0.009702283889055252,-0.035920899361371994,0.9909776449203491,0.12875904142856598
0,1651541667,600043253,3.489811091554203,-1.6864750916966407,-166.2444957941709,0.04443359375,0.59033203125,0.80224609375,1.52587890625,-3.173828125,20.08056640625,0.010958071798086166,-0.031988777220249176,0.9921824932098389,0.12012774497270584
0,1651541667,661271456,4.739817031606342,-1.6995715525433168,-168.40346394929855,0.00537109375,-0.64892578125,1.078125,-1.953125,-9.27734375,37.78076171875,0.010565447621047497,-0.04263186827301979,0.9938615560531616,0.10153888165950775
0,1651541667,704731902,4.975161017856063,-1.7400012565096208,-170.13426120573646,0.1806640625,-0.34912109375,1.072265625,2.50244140625,-3.72314453125,48.64501953125,0.011381585150957108,-0.044541485607624054,0.9951858520507812,0.08655412495136261
0,1651541667,761516110,5.5625632628926835,-1.880202308446651,-173.5229502794116,0.1201171875,-0.4228515625,0.94921875,-2.5634765625,-4.0283203125,59.08203125,0.013620765879750252,-0.04936524108052254,0.9970477223396301,0.057213570922613144
0,1651541667,805049315,5.950868481831193,-1.6969628471671951,-176.2793004397269,0.103515625,-0.390625,0.9951171875,0.67138671875,2.74658203125,66.83349609375,0.013095567002892494,-0.05235481634736061,0.997991144657135,0.033184513449668884
0,1651541667,867434023,6.683660694861644,-1.8338214820008563,178.83202900050583,0.2197265625,-0.39501953125,0.8564453125,2.44140625,-20.44677734375,81.6650390625,0.016568446531891823,-0.05811955779790878,0.9981294274330139,-0.009240882471203804
0,1651541667,906854396,7.034386639873568,-1.5871910350345122,175.69332485045317,0.060546875,0.205078125,1.02490234375,15.19775390625,-5.06591796875,77.0263671875,0.01611943356692791,-0.06077941507101059,0.9973479509353638,-0.03665057569742203
0,1651541667,964739563,5.7877896045475,-1.690730086106147,170.63021490174944,0.3173828125,0.6171875,1.35009765625,4.2724609375,-5.06591796875,74.03564453125,0.018808893859386444,-0.04910887032747269,0.9953405261039734,-0.08082026988267899
0,1651541668,4734109,5.308750445127248,-1.5034473662814551,167.35272130776215,0.14208984375,0.5869140625,1.013671875,6.77490234375,-2.86865234375,71.533203125,0.018126321956515312,-0.04458176717162132,0.9928306937217712,-0.10941291600465775
0,1651541668,60452232,4.648618211374216,-0.852254409408942,164.27602161499487,-0.0615234375,0.583984375,1.1318359375,7.8125,11.5966796875,23.13232421875,0.01290864311158657,-0.03915691375732422,0.9897993206977844,-0.13637228310108185
0,1651541668,105995796,4.2255878838085374,-0.5347577615959537,163.66713757124492,0.1044921875,0.62939453125,1.14013671875,-0.244140625,11.77978515625,12.02392578125,0.009853008203208447,-0.03583017736673355,0.9892003536224365,-0.14178061485290527
0,1651541668,165896761,5.303819475433322,-0.19962532522215443,163.42302661030865,0.03173828125,-0.25830078125,1.15380859375,-11.23046875,-3.47900390625,3.11279296875,0.008391885086894035,-0.04553382098674774,0.9885052442550659,-0.14392304420471191
0,1651541668,184636052,5.516190547296528,-0.19217725739630676,163.37807030519164,0.07470703125,-0.53466796875,1.13134765625,-1.8310546875,1.3427734375,3.173828125,0.008612940087914467,-0.04737170785665512,0.9883622527122498,-0.14429804682731628
0,1651541668,240710935,6.31671433123141,0.17258696751581437,163.10606485168506,0.00537109375,-0.43701171875,0.9677734375,-6.65283203125,4.150390625,6.591796875,0.006605727598071098,-0.0547189861536026,0.9876365661621094,-0.1467527449131012
0,1651541668,308483399,6.9634017644900945,0.22808608316336287,162.64826459237577,0.02001953125,-0.3525390625,1.00146484375,-0.48828125,-1.5869140625,7.8125,0.007196708582341671,-0.060334425419569016,0.9867126941680908,-0.15068519115447998
0,1651541668,347819526,7.358183283422247,0.4105360172634476,162.36091853399336,0.00439453125,-0.4296875,1.0888671875,-3.35693359375,0.54931640625,9.033203125,0.006305445451289415,-0.06395717710256577,0.9860981106758118,-0.15323315560817719
0,1651541668,403815793,7.9040323650958015,0.39496876216494553,161.81548694763282,0.14306640625,0.05859375,1.41455078125,12.26806640625,-7.568359375,8.36181640625,0.007495807949453592,-0.06859800219535828,0.9850438237190247,-0.15788251161575317
0,1651541668,446633530,6.202112721581882,0.43859720913821026,161.49053386768028,0.01171875,0.98193359375,0.6513671875,42.05322265625,2.86865234375,5.67626953125,0.0049279541708528996,-0.05400730296969414,0.9854973554611206,-0.1607917845249176
0,1651541668,505810931,5.276966586711416,0.6911714948276257,161.30050434459218,0.04541015625,0.720703125,1.06005859375,10.986328125,-1.953125,2.8076171875,0.001533430884592235,-0.046400412917137146,0.9856059551239014,-0.1625593602657318
0,1651541668,544842453,4.770802184776104,0.7286960738799998,161.30275830701828,-0.01220703125,0.72607421875,0.98974609375,-0.48828125,4.638671875,-1.77001953125,0.000491707178298384,-0.042099516838788986,0.9858002662658691,-0.16255831718444824
0,1651541668,585755771,4.354131617101354,0.7381143711369185,161.39659144583592,0.01904296875,0.67626953125,0.97998046875,-0.54931640625,1.64794921875,-3.0517578125,-0.0002119659329764545,-0.03852790221571922,0.986078679561615,-0.16175471246242523
0,1651541668,645066053,3.8570961898785874,0.7728498317695472,161.572236590532,0.00732421875,0.6640625,1.0732421875,2.5634765625,1.5869140625,-1.220703125,-0.0012651151046156883,-0.034297484904527664,0.986479640007019,-0.1602500081062317
0,1651541668,684647783,3.5588717745824363,0.7989496921354585,161.5615951558051,-0.056640625,0.57275390625,1.00244140625,-1.0986328125,-0.42724609375,1.40380859375,-0.0019039289327338338,-0.03176663815975189,0.9865480661392212,-0.16034457087516785
0,1651541668,748102798,3.1985641413820427,0.809239212037524,161.5486997586521,-0.0615234375,0.2216796875,1.041015625,-2.13623046875,1.46484375,-0.244140625,-0.002493457170203328,-0.028679151087999344,0.9866239428520203,-0.1604512333869934
0,1651541668,789463361,2.844277106491604,0.8239207570193193,161.55568021198386,-0.0205078125,0.3203125,0.96435546875,2.44140625,0.42724609375,-0.244140625,-0.0031175045296549797,-0.02564895711839199,0.9867162704467773,-0.16038565337657928
0,1651541668,826071452,2.5518540831217322,0.8156283737583949,161.5665128920075,-0.0166015625,0.20556640625,1.01025390625,-2.38037109375,0.42724609375,-0.67138671875,-0.0034575536847114563,-0.023118996992707253,0.9867944121360779,-0.16028228402137756
0,1651541668,884481647,2.1038666712156506,0.8389686776170623,161.5898311578339,0.00390625,0.06787109375,1.00732421875,-1.89208984375,0.42724609375,-0.3662109375,-0.004289081320166588,-0.019292743876576424,0.9869077801704407,-0.16007021069526672
0,1651541668,922275552,1.7474824480849003,0.7782607823352254,161.62959651918175,0.0009765625,0.05322265625,1.009765625,-1.3427734375,0.732421875,-1.52587890625,-0.0042695957235991955,-0.016137175261974335,0.9870234727859497,-0.15970619022846222
0,1651541668,984326571,1.1677006664496044,0.8177008559238178,161.66123395541723,0.01171875,0.05908203125,0.97607421875,-0.54931640625,0.244140625,-0.18310546875,-0.005420413333922625,-0.01119651086628437,0.9871336817741394,-0.1594131737947464
0,1651541669,24724238,0.7502386506047787,0.8176530979604806,161.68628708929285,-0.01025390625,0.052734375,1.0068359375,-0.244140625,0.79345703125,-0.6103515625,-0.006002375390380621,-0.007598896510899067,0.9872027039527893,-0.1591765284538269
0,1651541669,91115967,0.13976841548200555,0.794611241352031,161.70420950567495,0.00048828125,0.04541015625,0.98486328125,-0.732421875,0.48828125,-0.48828125,-0.006652127020061016,-0.0023065945133566856,0.9872554540634155,-0.15898779034614563
0,1651541669,126824484,-0.23314287774840528,0.7818881463930311,161.71945448790242,-0.01513671875,0.025390625,1.01220703125,-0.42724609375,0.30517578125,-0.30517578125,-0.007059740833938122,0.0009247945272363722,0.9872796535491943,-0.15883436799049377
0,1651541669,160016973,-0.6821525501937413,0.7285054689134741,161.72747312998803,-0.0205078125,0.04052734375,1.00537109375,-0.54931640625,0.42724609375,-0.48828125,-0.007221797481179237,0.0048678042367100716,0.9872821569442749,-0.15873967111110687
0,1651541669,227017207,-1.3427649249010838,0.7420919958330989,161.74157064043493,-0.00537109375,0.06982421875,1.0068359375,-0.18310546875,0.18310546875,-0.30517578125,-0.008252548053860664,0.010541487485170364,0.9872565865516663,-0.15857242047786713
0,1651541669,264367485,-1.7936279531694468,0.7511904481377906,161.75338686769905,-0.0244140625,0.07373046875,1.01416015625,-0.54931640625,0.06103515625,-0.3662109375,-0.008953283540904522,0.014414097182452679,0.9872235059738159,-0.15843559801578522
0,1651541669,324518789,-2.448877882326389,0.7125590049139042,161.7631950193472,-0.00439453125,0.07958984375,0.9921875,-0.06103515625,0.18310546875,-0.18310546875,-0.00952459778636694,0.020113211125135422,0.9871394634246826,-0.15830472111701965
0,1651541669,385213229,-3.1098002835890264,0.7337244271304515,161.77994264319207,-0.017578125,0.08642578125,0.99462890625,-0.3662109375,0.42724609375,-0.48828125,-0.010616005398333073,0.02577856555581093,0.9870297908782959,-0.15809781849384308
0,1651541669,422870799,-3.496151854981502,0.7562713084674867,161.79074800245903,-0.01123046875,0.08544921875,1.01171875,-0.3662109375,0.18310546875,-0.30517578125,-0.011340413242578506,0.02907613106071949,0.9869518876075745,-0.15796193480491638
0,1651541669,466184574,-3.9227868148816545,0.741046496642411,161.8001600031353,-0.02490234375,0.0869140625,1.0107421875,-0.79345703125,0.18310546875,-0.42724609375,-0.011794647201895714,0.03277244046330452,0.986849844455719,-0.1578422337770462
0,1651541669,524446594,-4.496147471645198,0.6362220359854914,161.81724913643868,-0.0048828125,0.08349609375,0.99853515625,0.06103515625,0.1220703125,-0.30517578125,-0.011676105670630932,0.037856247276067734,0.9866968989372253,-0.15767031908035278
0,1651541669,564633085,-4.8123369920057755,0.6677190798170349,161.83028113737507,-0.0234375,0.08740234375,1.0068359375,-0.67138671875,0.18310546875,-0.54931640625,-0.012377663515508175,0.04053661599755287,0.9866068959236145,-0.15751367807388306
0,1651541669,622118683,-4.6402730008689295,0.7271252370926027,161.85784778086523,-0.00244140625,0.08056640625,1.0029296875,0.06103515625,-0.1220703125,-0.3662109375,-0.012643225491046906,0.038976263254880905,0.9867047071456909,-0.1572735607624054
0,1651541669,665492259,-4.592006188438565,0.7198124523690462,161.8729971404443,-0.0224609375,0.08154296875,1.00537109375,-0.6103515625,0.1220703125,-0.42724609375,-0.012508914805948734,0.03857238218188286,0.9867417216300964,-0.15715090930461884
0,1651541669,724339363,-4.430910200448291,0.5978464046903632,161.89660227421587,-0.009765625,0.07470703125,1.00146484375,-0.1220703125,0.18310546875,-0.244140625,-0.011230054311454296,0.03735523670911789,0.9868269562721252,-0.1570066511631012
0,1651541669,764808573,-4.406027821301934,0.6115455763704403,161.91410121886946,-0.02001953125,0.07373046875,0.99951171875,-0.6103515625,0.30517578125,-0.54931640625,-0.011308261193335056,0.03712386637926102,0.986859142780304,-0.1568538248538971
0,1651541669,805115146,-4.283760604969536,0.6177267374867431,161.93263835227685,-0.01025390625,0.0751953125,0.98681640625,-0.18310546875,0.30517578125,-0.48828125,-0.01118829008191824,0.03606421500444412,0.9869235157966614,-0.15670403838157654
0,1651541669,861165455,-4.10852825983145,0.7935097132658078,161.96102461846743,-0.02099609375,0.07177734375,1.01123046875,-0.54931640625,-0.06103515625,-0.42724609375,-0.012454058974981308,0.034317027777433395,0.9870156645774841,-0.15642070770263672
0,1651541669,905393364,-4.076497660831853,0.5879127483162259,161.97482160059087,-0.00439453125,0.07275390625,0.9931640625,0.1220703125,0.18310546875,-0.42724609375,-0.010635432787239552,0.034323886036872864,0.9870447516441345,-0.1563701629638672
0,1651541669,944723667,-4.1426181608658075,0.5958953718261196,161.99068129984363,-0.0087890625,0.07177734375,1.0078125,-0.30517578125,-0.06103515625,-0.30517578125,-0.010789585299789906,0.034883998334407806,0.9870463609695435,-0.1562248170375824
0,1651541670,5123166,-4.288803419011121,0.6384621779506969,162.0148738298838,-0.00390625,0.078125,0.9892578125,0.06103515625,0.244140625,-0.3662109375,-0.011347864754498005,0.03608737140893936,0.9870342016220093,-0.1559884399175644
0,1651541670,65261799,-4.328945721423755,0.7822560161128598,162.04035043548797,-0.01953125,0.0751953125,1.0126953125,-0.67138671875,0.06103515625,-0.3662109375,-0.012632913887500763,0.036239657551050186,0.9870559573173523,-0.15571705996990204
0,1651541670,104549355,-4.3828448785984415,0.6310896824327558,162.05399715344964,-0.00244140625,0.07861328125,1.0,0.0,0.06103515625,-0.3662109375,-0.011399779468774796,0.03691134229302406,0.9870574474334717,-0.15564462542533875
0,1651541670,148404283,-4.434336394090698,0.7001123725337312,162.07108628675303,-0.01416015625,0.07568359375,1.0087890625,-0.244140625,-0.06103515625,-0.30517578125,-0.01205864641815424,0.03726266324520111,0.9870641827583313,-0.1554686725139618
0,1651541670,205105909,-4.577856597799237,0.515283078003249,162.09750545846262,-0.00390625,0.07958984375,0.98681640625,0.1220703125,0.18310546875,-0.42724609375,-0.010652529075741768,0.03875279799103737,0.9870510101318359,-0.1552909016609192
0,1651541670,242420702,-4.471589099597594,0.7890341250904511,162.1192664411583,-0.015625,0.07568359375,1.0166015625,-0.48828125,0.0,-0.48828125,-0.012859315611422062,0.03746793791651726,0.9871169924736023,-0.15501907467842102
0,1651541670,285834722,-4.399549813761,0.6372205776256356,162.13475731019588,-0.001953125,0.07666015625,0.98779296875,0.1220703125,0.18310546875,-0.42724609375,-0.01144916471093893,0.03705495968461037,0.9871615767478943,-0.1549452841281891
0,1651541670,349100799,-4.317211456429673,0.6497975172085678,162.16065738752857,-0.015625,0.07275390625,1.015625,-0.48828125,0.1220703125,-0.48828125,-0.011437954381108284,0.0363311767578125,0.9872229099273682,-0.154726043343544
