,s,ns,phi_r,phi_p,phi_y,ax,ay,az,wx,wy,wz,q.x,q.y,q.z,q.w
0,1650775094,754309241,-2.1640286849724153,-0.9608313119628431,-95.98274961359992,-0.23388671875,0.369140625,1.17822265625,0.8544921875,-7.50732421875,5.0048828125,-0.01886637508869171,-0.008420425467193127,-0.7429914474487305,-0.6689819693565369
0,1650775094,774346360,-2.490711723775659,-1.2124755446667999,-96.15995887161591,-0.06982421875,0.18994140625,1.03125,-1.708984375,-2.38037109375,9.82666015625,-0.02239038050174713,-0.009103594347834587,-0.7440143823623657,-0.6677262783050537
0,1650775094,794874108,-2.61189080559591,-1.4359068272303726,-96.45974270447694,0.1806640625,0.12353515625,0.9921875,5.615234375,-7.62939453125,18.73779296875,-0.024523919448256493,-0.008651955053210258,-0.7457613945007324,-0.6657053828239441
0,1650775094,814280596,-2.784894588073867,-1.785786575837155,-96.96723258999805,0.29736328125,0.2509765625,0.9365234375,14.892578125,-20.751953125,32.3486328125,-0.02776997908949852,-0.007867014035582542,-0.7487052083015442,-0.6622745394706726
0,1650775094,834441428,-3.097457064541756,-2.064026177786966,-97.92509831920064,-0.1318359375,0.37548828125,0.45654296875,10.7421875,-5.9814453125,41.07666015625,-0.031322259455919266,-0.008561845868825912,-0.7542023658752441,-0.6558388471603394
0,1650775094,854413075,-3.118939503585327,-2.437213413327888,-98.84350604556806,0.3291015625,0.12841796875,1.3955078125,-4.5166015625,-22.03369140625,52.3681640625,-0.03384542465209961,-0.006836429703980684,-0.7594417929649353,-0.6496583819389343
0,1650775094,874729749,-3.145791751976997,-2.8016347413993334,-100.01723307329974,0.3349609375,0.1953125,1.10498046875,-7.26318359375,-1.0986328125,66.40625,-0.03635765612125397,-0.005318210925906897,-0.7660548090934753,-0.6417241096496582
0,1650775094,894147309,-3.1832918383978943,-3.242242987680863,-101.82784109018925,0.07275390625,0.095703125,0.8779296875,0.18310546875,-13.36669921875,75.3173828125,-0.03945564851164818,-0.003721316112205386,-0.7760850191116333,-0.6293818950653076
0,1650775094,914230476,-3.1590529911374,-3.713500000315532,-103.33153455672424,0.37841796875,0.11767578125,0.8505859375,1.89208984375,-13.671875,80.74951171875,-0.04249347746372223,-0.0015215183375403285,-0.7842501401901245,-0.6189860105514526
0,1650775094,934441421,-2.9396534411748387,-4.00866491775034,-104.9411232761511,0.47509765625,0.01171875,0.88671875,1.77001953125,-2.01416015625,83.49609375,-0.043343450874090195,0.0009692707099020481,-0.7928410172462463,-0.607884407043457
0,1650775094,954502796,-2.3355089083786362,-4.126547579522414,-107.11493343234521,0.75341796875,-0.3115234375,1.28759765625,-1.89208984375,10.8642578125,84.77783203125,-0.041054874658584595,0.004998082760721445,-0.8042004108428955,-0.5929175019264221
0,1650775094,970726241,-2.657767265260181,-4.2373584341825845,-108.61240459654631,0.283203125,0.0439453125,0.548828125,42.17529296875,0.42724609375,86.3037109375,-0.04353838413953781,0.002742303302511573,-0.8118734359741211,-0.5822013020515442
0,1650775095,10095159,-2.2779549596677584,-4.772093944302883,-112.72270315603326,0.099609375,0.29052734375,0.93896484375,-10.009765625,-3.41796875,90.02685546875,-0.04565577581524849,0.006523109506815672,-0.8321200609207153,-0.5526746511459351
0,1650775095,34711049,-2.1396478978432314,-5.026842924871434,-114.48771966021295,0.2236328125,0.00537109375,0.9404296875,20.263671875,-12.0849609375,93.56689453125,-0.046965885907411575,0.008036652579903603,-0.8404685854911804,-0.5397612452507019
0,1650775095,69608013,-2.221476125420923,-5.665008416480059,-118.50375477896455,0.4853515625,0.13720703125,0.73486328125,4.638671875,-0.18310546875,84.16748046875,-0.052360281348228455,0.008620706386864185,-0.8587017059326172,-0.509721040725708
0,1650775095,92387371,-2.2241787458981324,-5.962818751557777,-119.95088061879349,0.271484375,0.16064453125,0.97265625,15.93017578125,-19.10400390625,73.30322265625,-0.05472227558493614,0.009239109233021736,-0.8649813532829285,-0.49872586131095886
0,1650775095,139810299,-2.4412660633832326,-5.800477107817621,-122.57932865671116,0.26708984375,0.25732421875,0.380859375,-15.869140625,14.6484375,49.13330078125,-0.054586801677942276,0.005640820600092411,-0.8762550950050354,-0.4787122309207916
0,1650775095,181285736,-2.2017763657507254,-5.725427416104345,-124.30867791304503,0.32373046875,0.24560546875,1.1845703125,10.498046875,4.08935546875,36.62109375,-0.05311489477753639,0.006356583442538977,-0.8833907842636108,-0.4655739963054657
0,1650775095,214186102,-2.2887022623267734,-5.489510547737988,-125.42452591775,-0.18603515625,0.23828125,0.8984375,3.2958984375,2.685546875,25.5126953125,-0.051694706082344055,0.004221228417009115,-0.8879572749137878,-0.4569922089576721
0,1650775095,235486147,-2.362326792381045,-5.5726369381448055,-125.86314700586989,0.08203125,0.1513671875,1.00927734375,0.42724609375,-4.5166015625,22.64404296875,-0.05264664068818092,0.0037819899152964354,-0.8896780014038086,-0.4535275399684906
0,1650775095,274274611,-2.31590221003588,-5.731441824555364,-126.8433064725234,0.5361328125,0.08056640625,1.23486328125,-4.94384765625,28.3203125,20.8740234375,-0.053733423352241516,0.004313942044973373,-0.8934746384620667,-0.44586679339408875
0,1650775095,316445992,-2.683471401541055,-5.304972069855761,-127.65432313457072,-0.08642578125,0.267578125,1.07763671875,-7.9345703125,13.5498046875,18.310546875,-0.051838770508766174,-0.0005854304181411862,-0.8967381715774536,-0.4395146369934082
0,1650775095,335668958,-2.6886418547427544,-5.269924661677133,-127.97714519550219,-0.115234375,0.08056640625,1.048828125,-4.69970703125,-10.6201171875,18.310546875,-0.051582276821136475,-0.0009062347235158086,-0.8979823589324951,-0.4369968771934509
0,1650775095,375572154,-2.194515447776179,-5.4318838148237685,-129.2132728314911,0.0478515625,0.1826171875,1.32958984375,-0.244140625,2.74658203125,32.8369140625,-0.05100118741393089,0.003036120906472206,-0.9025939106941223,-0.42745059728622437
0,1650775095,389682359,-2.313891359655546,-5.642475195521363,-129.9371909212424,0.10888671875,0.0390625,1.16357421875,20.20263671875,-21.8505859375,43.76220703125,-0.053120777010917664,0.002548943506553769,-0.9052138328552246,-0.4216156601905823
0,1650775095,435317523,-2.6272958703820506,-6.170767702820224,-132.15017221232654,0.0380859375,0.2431640625,1.30078125,2.0751953125,-4.82177734375,68.29833984375,-0.05847015976905823,0.000896753161214292,-0.913013219833374,-0.4037170112133026
0,1650775095,450000054,-2.77456221940693,-6.6300637735577315,-134.0186934031886,0.58837890625,0.21142578125,1.17919921875,3.662109375,-2.3193359375,77.45361328125,-0.06265738606452942,0.00032918708166107535,-0.9193056225776672,-0.3885243535041809
0,1650775095,489850194,-2.751956214244892,-6.729956570829637,-136.85010734248235,0.3955078125,0.21630859375,0.69580078125,5.55419921875,17.578125,72.20458984375,-0.0633828416466713,-0.000714704452548176,-0.9285846948623657,-0.3656674027442932
0,1650775095,513668859,-2.792933080396737,-6.78711927776712,-138.70470860781592,0.3037109375,0.24560546875,0.927734375,10.80322265625,-2.74658203125,74.8291015625,-0.0639539361000061,-0.0018982917536050081,-0.9343570470809937,-0.3505471646785736
0,1650775095,554669475,-2.7090075578570287,-6.983675473493985,-141.6003536460645,0.30908203125,0.19189453125,0.91943359375,-7.62939453125,-1.708984375,78.67431640625,-0.06526186317205429,-0.0022577843628823757,-0.9428342580795288,-0.3268018662929535
0,1650775095,590939799,-2.4353991443296032,-6.973902753452166,-143.58134073179997,0.00830078125,0.0986328125,0.70947265625,-1.0986328125,-8.48388671875,78.18603515625,-0.06439082324504852,-0.001147952163591981,-0.9483523368835449,-0.31061282753944397
0,1650775095,609917834,-1.8682018795183502,-7.013590848284995,-146.56465807823483,-0.1552734375,0.13671875,0.755859375,11.71875,6.103515625,73.2421875,-0.06325454264879227,0.00200855010189116,-0.9561004042625427,-0.2861241400241852
0,1650775095,635035170,-1.1493399440218464,-7.132224403978946,-148.6993654014306,0.32470703125,-0.33203125,0.9931640625,-26.123046875,9.94873046875,85.3271484375,-0.06259163469076157,0.007139457389712334,-0.9611814618110657,-0.26862889528274536
0,1650775095,672319904,-1.1077418508206474,-7.552102599242664,-151.7258768641766,0.39990234375,-0.52783203125,0.50390625,6.65283203125,-13.18359375,86.36474609375,-0.06621521711349487,0.006730666849762201,-0.967719316482544,-0.24308335781097412
0,1650775095,696269675,-0.499591091911115,-7.664701682804909,-154.02035597243733,0.28466796875,0.09130859375,1.384765625,0.8544921875,-3.84521484375,84.04541015625,-0.06610407680273056,0.010784727521240711,-0.9722873568534851,-0.22398923337459564
0,1650775095,736030949,-0.5700775235677359,-7.627320911251076,-157.33695922961212,0.2822265625,0.09423828125,1.0947265625,1.8310546875,6.40869140625,89.66064453125,-0.06618977338075638,0.00820137932896614,-0.9783884286880493,-0.19572362303733826
0,1650775095,751396848,-0.6253473609706262,-7.623553208150167,-159.52761946248864,0.30126953125,0.51123046875,1.2080078125,7.32421875,3.96728515625,82.03125,-0.06638752669095993,0.006455145310610533,-0.9819564819335938,-0.17695362865924835
0,1650775095,791092490,-0.4095521765382748,-7.427405543113033,-161.99099548854545,-0.03564453125,0.08544921875,0.7578125,-2.3193359375,6.53076171875,50.78125,-0.06453052163124084,0.00661482522264123,-0.985632061958313,-0.15595383942127228
0,1650775095,810384353,-0.4108670146339287,-7.154922830138191,-162.77839335644288,0.08203125,0.1787109375,0.55078125,6.53076171875,10.43701171875,35.21728515625,-0.06222996115684509,0.0058041042648255825,-0.986828625202179,-0.14920781552791595
0,1650775095,855040114,-0.7214943864521618,-6.830380415309511,-163.6422483619094,0.2373046875,0.12451171875,0.94970703125,-7.50732421875,10.3759765625,13.5498046875,-0.05985806882381439,0.0022535687312483788,-0.9881047010421753,-0.14163731038570404
0,1650775095,874526539,-0.6344442124497311,-6.509845187089514,-163.8280841488471,-0.0068359375,0.0869140625,1.447265625,-6.4697265625,7.8125,10.009765625,-0.05699072405695915,0.002513612387701869,-0.9884900450706482,-0.14011825621128082
0,1650775095,914765066,-0.11767772941654636,-6.406699939112213,-164.1999879491543,0.240234375,-0.71826171875,0.71337890625,-19.34814453125,7.14111328125,11.5966796875,-0.05549044534564018,0.0066647944040596485,-0.9889692068099976,-0.13717305660247803
0,1650775095,957839082,-0.18384070468940208,-5.888814932561159,-164.4546583825474,-0.34228515625,0.25537109375,0.62744140625,3.72314453125,-6.7138671875,6.103515625,-0.05111166834831238,0.005359540693461895,-0.9895144104957581,-0.1349826157093048
0,1650775095,969844175,-0.022835033277698435,-5.789069838130054,-164.57843507068637,-0.19580078125,-0.0537109375,1.13916015625,-18.24951171875,2.197265625,5.615234375,-0.050067778676748276,0.006578190717846155,-0.9896950125694275,-0.1339915543794632
0,1650775096,15198536,0.8015875325372586,-5.521114686801284,-165.01003472433948,-0.02783203125,-0.20458984375,0.76806640625,21.05712890625,-1.3427734375,10.7421875,-0.046838145703077316,0.013209392316639423,-0.9902375340461731,-0.1306188404560089
0,1650775096,31516830,0.7018984136408366,-5.557611802631247,-165.1711042453467,0.1689453125,0.02685546875,1.4150390625,1.15966796875,7.568359375,5.4931640625,-0.04728453606367111,0.012322881259024143,-0.9904157519340515,-0.12918603420257568
0,1650775096,81002725,0.20506324969896883,-5.794842628639184,-165.71533371841332,0.466796875,0.72509765625,1.0537109375,21.30126953125,-5.9814453125,22.15576171875,-0.04993345960974693,0.008058217354118824,-0.990959107875824,-0.12426532804965973
0,1650775096,89826439,0.05088872795262999,-5.996200874239392,-166.1594872597609,-0.1220703125,0.154296875,0.78173828125,-12.26806640625,-16.78466796875,30.94482421875,-0.051868367940187454,0.006742104887962341,-0.9913532137870789,-0.12034597247838974
0,1650775096,135474435,0.32913595716935123,-6.285375288885276,-167.93838270833405,0.1328125,0.10986328125,1.14208984375,16.05224609375,-4.5166015625,55.0537109375,-0.05421779304742813,0.008611888624727726,-0.992949366569519,-0.10506139695644379
0,1650775096,175011739,0.16526962043933574,-6.982379871985798,-171.13944648550893,0.244140625,0.1826171875,0.75732421875,-0.30517578125,-17.88330078125,83.31298828125,-0.060601841658353806,0.0061391559429466724,-0.9951540231704712,-0.07718997448682785
0,1650775096,214533779,-0.01930996530993758,-7.291682000342064,-174.85904456409278,0.20458984375,0.19873046875,1.16650390625,6.2255859375,-1.3427734375,83.31298828125,-0.06353255361318588,0.002683852566406131,-0.9969725012779236,-0.0447467565536499
0,1650775096,234370191,0.06356021296172466,-7.373119199589772,-176.47900151067975,0.4677734375,0.06689453125,1.01904296875,-0.91552734375,0.67138671875,86.3037109375,-0.06425084918737411,0.002528608776628971,-0.9974585175514221,-0.0306937787681818
0,1650775096,270205502,1.2066930424824436,-7.4009129468698465,179.34985296224116,-0.07568359375,-0.77490234375,0.84326171875,-35.82763671875,-0.54931640625,98.14453125,-0.06459526717662811,0.010141913779079914,-0.9978475570678711,0.004981782753020525
0,1650775096,314786926,1.8841751306660712,-7.546248273350317,175.71587813509257,0.09521484375,-0.7333984375,0.333984375,-6.53076171875,-17.4560546875,94.23828125,-0.06636419147253036,0.013935375027358532,-0.997040867805481,0.03620999678969383
0,1650775096,334860910,2.040423818779752,-7.3726513316316264,173.24363652349308,0.5869140625,0.18408203125,1.03076171875,22.4609375,7.8125,92.22412109375,-0.06521926075220108,0.013949387706816196,-0.9961064457893372,0.05765226110816002
0,1650775096,375007437,1.9982659702317296,-7.603402442551337,169.64351211387105,0.36181640625,0.0966796875,0.7177734375,-7.62939453125,2.74658203125,89.7216796875,-0.06759320944547653,0.011344621889293194,-0.993680477142334,0.08889066427946091
0,1650775096,415593200,1.8303607105257755,-7.180707648028635,166.53721038124095,0.123046875,0.0927734375,0.7060546875,5.2490234375,0.732421875,60.24169921875,-0.06405138969421387,0.008491642773151398,-0.9911481738090515,0.11597657203674316
0,1650775096,435903282,2.4116367027637176,-6.953439933585631,165.61535340934267,-0.0849609375,-0.74609375,1.1064453125,-47.05810546875,22.5830078125,39.4287109375,-0.06278233975172043,0.01324909646064043,-0.990246057510376,0.1236761063337326
0,1650775096,474353374,2.5092904786483285,-6.292156386070629,164.44562887246462,0.06982421875,0.45947265625,1.146484375,23.01025390625,12.63427734375,14.09912109375,-0.05732249841094017,0.014236947521567345,-0.9892340302467346,0.133894145488739
0,1650775096,515153508,2.231297297117167,-6.153518060071357,163.98821110374888,0.04296875,0.04931640625,0.880859375,-11.29150390625,9.765625,8.60595703125,-0.055848415940999985,0.011778959073126316,-0.9887844920158386,0.13801299035549164
0,1650775096,538728267,3.2058918671444085,-6.067983174208464,163.6038900195306,0.23681640625,-0.86865234375,1.19970703125,-16.29638671875,10.92529296875,15.380859375,-0.056350257247686386,0.020103979855775833,-0.9882181286811829,0.14087434113025665
0,1650775096,574213014,2.905046366754265,-5.810234459933808,163.28237935491975,-0.03857421875,0.21240234375,0.39501953125,12.63427734375,-12.63427734375,7.01904296875,-0.05380786582827568,0.017681702971458435,-0.9879748821258545,0.14386726915836334
0,1650775096,615919622,2.5459907926060996,-6.265475959625267,162.41476774540973,0.0537109375,0.03515625,0.69677734375,4.7607421875,-21.05712890625,34.0576171875,-0.057384636253118515,0.01357068121433258,-0.9867133498191833,0.1513926237821579
0,1650775096,640510327,2.4044541185212145,-6.6535190700543785,161.59888798867337,0.15966796875,0.21337890625,0.671875,9.09423828125,-18.798828125,46.9970703125,-0.06062016263604164,0.011399987153708935,-0.985448956489563,0.15838424861431122
0,1650775096,674319824,3.5354444391727045,-6.929396387046717,158.52329478655165,0.37255859375,-0.62841796875,1.60107421875,-23.8037109375,-7.2021484375,75.13427734375,-0.06508415937423706,0.018997205421328545,-0.9805731773376465,0.18406368792057037
0,1650775096,715217559,3.669924247184497,-7.237849010624962,154.48336083589416,0.22314453125,0.27490234375,0.8232421875,12.63427734375,-7.32421875,97.83935546875,-0.06858748197555542,0.017235545441508293,-0.9733126759529114,0.21831448376178741
0,1650775096,735917853,3.8255974918606044,-7.3312424560147775,152.498890353682,0.248046875,0.16064453125,1.2265625,3.5400390625,-1.708984375,110.7177734375,-0.06998423486948013,0.017167234793305397,-0.9693197011947632,0.23500409722328186
0,1650775096,794475945,3.989122465874465,-7.841281709643602,145.22900092566047,0.70556640625,0.4306640625,0.45703125,13.0615234375,-12.3291015625,113.70849609375,-0.07558679580688477,0.01271894946694374,-0.9522168636322021,0.29564833641052246
0,1650775096,818403955,4.037584792469821,-7.665126008307096,141.83094083244413,0.59033203125,0.27197265625,0.7216796875,16.17431640625,5.7373046875,100.7080078125,-0.07462024688720703,0.011375697329640388,-0.9431084394454956,0.3238038718700409
0,1650775096,854582054,4.351268914065472,-7.343807442766662,139.29970004679407,0.35986328125,0.02880859375,0.5087890625,-4.2724609375,6.34765625,69.15283203125,-0.07317714393138885,0.013265031389892101,-0.9358312487602234,0.3445129990577698
0,1650775096,897345378,4.359521063243317,-6.23994898137599,137.34208586839839,0.060546875,0.2197265625,1.203125,-9.46044921875,24.59716796875,27.03857421875,-0.06447599828243256,0.015595254488289356,-0.9302067160606384,0.36099186539649963
0,1650775096,943329218,4.4163640319502795,-5.896830159552168,136.59222672017935,-0.314453125,0.1884765625,1.19189453125,-4.94384765625,4.21142578125,16.6015625,-0.061984967440366745,0.016743866726756096,-0.92792147397995,0.3672046959400177
0,1650775096,951706047,4.393900820430576,-5.763165491929135,136.2058292584534,0.03076171875,0.07861328125,0.9619140625,-4.150390625,1.3427734375,13.427734375,-0.06088922545313835,0.016789346933364868,-0.9267195463180542,0.37040719389915466
0,1650775096,994768606,4.4332175237272855,-5.548374398665628,135.76028235851513,-0.22607421875,-0.84326171875,0.0185546875,-22.8271484375,-5.67626953125,14.0380859375,-0.059350673109292984,0.01757766865193844,-0.9253250360488892,0.37408843636512756
0,1650775097,30013094,4.821081341690684,-5.380814917286406,134.91109859938578,-0.11669921875,0.21142578125,0.46923828125,15.80810546875,-6.65283203125,25.45166015625,-0.05942169576883316,0.020821988582611084,-0.9225049018859863,0.38081520795822144
0,1650775097,61402212,4.713493482545113,-5.567068626423953,134.22368104055903,0.45947265625,0.65966796875,1.70556640625,16.4794921875,0.6103515625,42.8466796875,-0.060675956308841705,0.01896732859313488,-0.9201772212982178,0.38630643486976624
0,1650775097,94375571,4.418201352837013,-6.142044622926204,131.7038876519579,0.50341796875,0.10498046875,1.0283203125,-9.46044921875,-10.80322265625,74.21875,-0.06459587067365646,0.013222327455878258,-0.9113485813140869,0.4063205420970917
0,1650775097,141628961,5.311146560865453,-5.763018642861979,127.91615160621399,0.6484375,-0.15283203125,1.59912109375,5.37109375,13.97705078125,80.322265625,-0.06543361395597458,0.01952878013253212,-0.8973959684371948,0.435910165309906
0,1650775097,157337455,4.873138482223583,-5.901012796645155,126.18027268903359,0.2685546875,0.26611328125,0.720703125,22.216796875,-20.69091796875,98.7548828125,-0.06507378071546555,0.014584580436348915,-0.8907228112220764,0.4496282637119293
0,1650775097,194878769,5.1569068021414015,-5.781280007381655,121.46879453918045,0.328125,0.28369140625,0.55859375,14.34326171875,6.28662109375,99.79248046875,-0.06591299176216125,0.014567239210009575,-0.8714799284934998,0.48576340079307556
0,1650775097,235809753,4.79151772164193,-5.684121847098693,118.32873801167214,0.2431640625,0.19140625,0.95166015625,3.2958984375,-3.11279296875,70.86181640625,-0.06393701583147049,0.010455649346113205,-0.8578979969024658,0.50971919298172
0,1650775097,274941932,4.703028352076184,-5.151434539955752,116.22976623821387,0.05908203125,0.08642578125,0.72705078125,2.01416015625,9.033203125,26.42822265625,-0.05977744236588478,0.01108595822006464,-0.8485108017921448,0.5256741046905518
0,1650775097,294413893,4.855036346488933,-4.946364940315289,115.82897073771751,-0.05224609375,-0.91943359375,-0.1591796875,-12.63427734375,-4.39453125,21.3623046875,-0.05900542810559273,0.012951561249792576,-0.8466782569885254,0.5286648869514465
0,1650775097,330271188,5.493773439553723,-4.389167499335758,115.07547792886005,0.3525390625,0.07421875,0.82177734375,27.7099609375,-0.9765625,16.6015625,-0.057976674288511276,0.019875749945640564,-0.843142569065094,0.5341856479644775
0,1650775097,374823460,5.556284611498149,-4.020660864366999,114.67267435274772,-0.0224609375,-0.0107421875,0.93212890625,-18.61572265625,1.953125,10.80322265625,-0.055640026926994324,0.021867962554097176,-0.8412639498710632,0.5373090505599976
0,1650775097,414648159,5.174994850610888,-3.978437915578449,114.16381842939259,0.33251953125,0.041015625,0.603515625,3.60107421875,9.82666015625,8.72802734375,-0.05362754687666893,0.019029714167118073,-0.8389387130737305,0.5412428975105286
0,1650775097,434840960,5.193490149109636,-3.9117266041812884,113.95954113169586,0.32666015625,-0.05029296875,1.39892578125,-3.60107421875,0.42724609375,9.27734375,-0.0532621368765831,0.019386833533644676,-0.8379718661308289,0.5427618026733398
0,1650775097,475496869,4.873750211041122,-3.7727305470242363,113.68590326297763,0.033203125,0.17236328125,1.1396484375,-2.38037109375,8.6669921875,7.62939453125,-0.05077502131462097,0.017588874325156212,-0.8367297053337097,0.5449733734130859
0,1650775097,510548907,4.627824127332935,-3.915963455900812,112.7777954618786,-0.001953125,-0.0107421875,0.91552734375,-1.28173828125,-0.6103515625,33.26416015625,-0.050767526030540466,0.014707153663039207,-0.8324127197265625,0.5516297817230225
0,1650775097,554712150,5.276917067839934,-4.227645478296004,110.86611430565124,0.19775390625,0.1806640625,2.181640625,-3.662109375,-16.54052734375,53.28369140625,-0.0564412996172905,0.016976041719317436,-0.8229945302009583,0.5649834871292114
0,1650775097,594491985,5.323094696157921,-4.629383544897814,107.32854759863736,0.1240234375,0.20849609375,1.47607421875,-11.8408203125,-0.732421875,91.49169921875,-0.059991464018821716,0.013471758924424648,-0.8051446676254272,0.5898826718330383
0,1650775097,611461422,5.37132949207655,-4.482146864507142,105.55112064073577,-0.00439453125,-0.07470703125,0.7353515625,0.48828125,-10.43701171875,95.76416015625,-0.05942697823047638,0.013652370311319828,-0.7958974242210388,0.6023532748222351
0,1650775097,654317323,6.07832920325374,-4.177618611493892,101.57345752474129,0.654296875,-0.47119140625,0.9482421875,-12.451171875,24.2919921875,74.0966796875,-0.06169705092906952,0.018040712922811508,-0.7744159698486328,0.6294029355049133
0,1650775097,696615618,5.682052299780179,-3.749600111399988,99.33506792994471,-0.00390625,0.1298828125,0.89794921875,0.244140625,5.9814453125,39.794921875,-0.05697084218263626,0.01661498285830021,-0.7620067000389099,0.6448443531990051
0,1650775097,734648009,5.499327664009413,-3.4996719637249973,98.43780646924765,0.087890625,0.4072265625,0.82568359375,11.5966796875,6.4697265625,19.53125,-0.0544147714972496,0.016386138275265694,-0.7569429278373718,0.6510053277015686
0,1650775097,755711763,5.3443037141912795,-3.458563189544806,98.00361817389911,0.0693359375,0.193359375,1.0810546875,-22.5830078125,1.3427734375,14.5263671875,-0.05332183092832565,0.015394506976008415,-0.7544893026351929,0.653961718082428
0,1650775097,796882590,4.977413272734875,-3.370380751604887,97.53599610256336,-0.24365234375,0.05810546875,1.02685546875,-6.103515625,2.99072265625,10.498046875,-0.050703030079603195,0.013276868499815464,-0.7518542408943176,0.6572428941726685
0,1650775097,837334144,5.432714963468394,-3.293983378191002,97.12412886542242,0.08544921875,0.06103515625,1.1142578125,34.5458984375,-6.04248046875,13.12255859375,-0.05287371203303337,0.016513576731085777,-0.7494227886199951,0.6597704887390137
0,1650775097,876009742,5.674059270903971,-2.879183215131777,96.80421646507736,0.3896484375,0.04541015625,0.74560546875,2.9296875,14.2822265625,10.498046875,-0.05161397159099579,0.02034333348274231,-0.7474957704544067,0.6619458198547363
0,1650775097,890064139,5.50302834587909,-2.942037817525408,96.56229116467551,0.197265625,0.15380859375,1.095703125,9.521484375,-9.21630859375,12.75634765625,-0.0510747954249382,0.018755750730633736,-0.7461330890655518,0.6635699272155762
0,1650775097,934723292,5.057642382273137,-2.8983547023583567,96.29914446652242,0.09814453125,0.29150390625,0.82861328125,15.5029296875,-1.708984375,6.16455078125,-0.048248279839754105,0.01599852368235588,-0.7446701526641846,0.6654942035675049
0,1650775097,974303380,4.635713422711123,-2.7990320124387353,96.01501542723906,0.36328125,0.14306640625,0.99560546875,-2.13623046875,12.20703125,8.1787109375,-0.04518742859363556,0.013722804374992847,-0.743063747882843,0.6675524115562439
0,1650775098,793499,4.377434515002145,-2.66414623505815,95.91620991070566,-0.095703125,0.18408203125,1.125,4.08935546875,2.44140625,8.9111328125,-0.042820509523153305,0.012798578478395939,-0.7425075769424438,0.6683451533317566
0,1650775098,35606335,4.1134118450880095,-2.688784221498267,95.62090668194016,0.02587890625,0.24853515625,1.09375,0.42724609375,-5.859375,6.77490234375,-0.04146797955036163,0.010836968198418617,-0.7408115267753601,0.6703442931175232
0,1650775098,54546001,3.9396458561873615,-2.4878511551738933,95.51190369297592,-0.1435546875,0.0322265625,0.84521484375,5.4931640625,1.64794921875,6.34765625,-0.03916459158062935,0.010853963904082775,-0.7401778101921082,0.6711819767951965
0,1650775098,95131893,4.20469049315606,-2.530151157034017,95.27444533629127,0.037109375,0.10107421875,0.7236328125,20.5078125,-12.02392578125,8.7890625,-0.041015151888132095,0.012232805602252483,-0.7387616634368896,0.6726064085960388
0,1650775098,115046195,3.7865488734888184,-2.432064731354168,95.18030483896098,0.19140625,0.837890625,1.0771484375,16.05224609375,21.78955078125,3.72314453125,-0.03793729469180107,0.010082611814141273,-0.738243043422699,0.6733916997909546
0,1650775098,150287803,4.315525253478326,-2.172241774005944,94.97134886168278,-0.11083984375,-1.42919921875,0.7646484375,-53.22265625,-4.0283203125,10.55908203125,-0.03940129280090332,0.014947609975934029,-0.7369356751441956,0.6746479272842407
0,1650775098,175857112,4.953730445561502,-2.170349384719027,94.87747474173013,-0.26904296875,-0.86083984375,1.57958984375,-27.64892578125,-5.55419921875,1.220703125,-0.04316148906946182,0.019027449190616608,-0.7362880706787109,0.6750221252441406
0,1650775098,215552850,5.342608546616647,-2.141688416857773,94.54672966136143,-0.72607421875,-0.79833984375,1.04248046875,-24.0478515625,-14.70947265625,2.9296875,-0.045330584049224854,0.02156437188386917,-0.7342638373374939,0.6770057082176208
0,1650775098,230405431,5.587113524090648,-2.023728488570714,94.34301243917662,0.24169921875,-0.265625,0.94384765625,-5.31005859375,1.64794921875,6.2255859375,-0.04606275260448456,0.023747341707348824,-0.7329912185668945,0.6782612204551697
0,1650775098,274723748,4.544821960991648,-2.1577703107019794,94.07819917486606,-0.10546875,0.17333984375,0.68603515625,7.01904296875,-6.16455078125,4.33349609375,-0.040785666555166245,0.01619010977447033,-0.7316226363182068,0.6802961826324463
0,1650775098,314369822,4.382514041310519,-2.131690087129932,93.97151162003045,-0.03564453125,0.08447265625,1.26318359375,-1.3427734375,-4.7607421875,0.8544921875,-0.03966999053955078,0.015271973796188831,-0.7310082316398621,0.6810433864593506
0,1650775098,331292410,4.284543515403149,-2.15200989991072,93.91898746531307,-0.4921875,-0.2333984375,-0.07177734375,-0.732421875,1.3427734375,0.1220703125,-0.03922383114695549,0.014508061110973358,-0.7307108640670776,0.6814050078392029
0,1650775098,353152269,4.960304929524462,-1.8994583192642094,93.87758285856445,-0.03125,-1.0146484375,1.1923828125,-21.17919921875,17.2119140625,0.1220703125,-0.04164092242717743,0.02030564285814762,-0.7303298115730286,0.681522011756897
0,1650775098,395124128,5.047100839062868,-1.887148610832554,93.93383629656867,-0.333984375,-0.0322265625,1.759765625,15.869140625,8.7890625,3.90625,-0.042068496346473694,0.020952794700860977,-0.7306467294692993,0.6811363101005554
0,1650775098,414331542,5.009047720762612,-2.009570573638335,93.85407334744126,0.31982421875,-0.3017578125,0.92626953125,-4.57763671875,-4.33349609375,-0.48828125,-0.042635709047317505,0.019951652735471725,-0.7301979660987854,0.6816122531890869
0,1650775098,454635383,5.1374424705541575,-1.7986626563613926,93.90476018127193,-0.4072265625,0.10498046875,1.31494140625,-0.42724609375,-2.0751953125,1.8310546875,-0.0420476533472538,0.022044910117983818,-0.7304425835609436,0.6813219785690308
0,1650775098,475642593,4.749353256348149,-2.0253668801978706,93.8430835730667,0.162109375,0.02685546875,0.8330078125,13.97705078125,1.46484375,1.28173828125,-0.0411931611597538,0.01819871924817562,-0.7301780581474304,0.6817712187767029
0,1650775098,513049953,4.039877601596829,-2.0740134084574056,93.80885749513578,0.3115234375,0.1201171875,0.98046875,-1.77001953125,-8.36181640625,2.50244140625,-0.037284966558218,0.013376559130847454,-0.7300776839256287,0.6822152733802795
0,1650775098,536911275,3.9254983999821498,-1.9624153744953905,93.83670417638191,0.09033203125,0.32666015625,0.7119140625,-1.5869140625,19.34814453125,-0.54931640625,-0.03589055314660072,0.013321858830749989,-0.7302461862564087,0.682110607624054
0,1650775098,571483307,3.6559279089146712,-1.9827161908125492,93.7001823552517,-0.1328125,-0.3759765625,0.67822265625,-2.99072265625,10.07080078125,4.39453125,-0.03442872315645218,0.011441953480243683,-0.7294638752937317,0.6830565333366394
0,1650775098,595982812,4.307321769398318,-1.9188214786743725,93.64203695484738,0.24755859375,-0.43603515625,1.4677734375,-17.08984375,15.869140625,0.30517578125,-0.03791286051273346,0.015950405970215797,-0.7290330529212952,0.6832416653633118
0,1650775098,629818165,3.6424459692667126,-2.019376590852358,93.55886574132414,0.0615234375,0.697265625,1.28955078125,13.85498046875,10.25390625,2.44140625,-0.034595195204019547,0.011094684712588787,-0.7286251783370972,0.6839485764503479
0,1650775098,654321126,3.3334283609780604,-1.9302949158195246,93.5407657400236,-0.1689453125,0.306640625,0.58740234375,-2.8076171875,-1.03759765625,1.708984375,-0.032186299562454224,0.009657036513090134,-0.7285386919975281,0.684179961681366
0,1650775098,690217845,2.7531751895683274,-2.0530524116682827,93.5212928706999,0.07470703125,0.2900390625,0.94921875,21.66748046875,-7.32421875,0.6103515625,-0.029502220451831818,0.005229101050645113,-0.7284659743309021,0.6844265460968018
0,1650775098,734899910,2.3048215087680037,-2.010455510022675,93.57981393150857,-0.10888671875,0.5634765625,1.224609375,3.5400390625,7.38525390625,-0.54931640625,-0.02655213326215744,0.0026470713783055544,-0.7288300395011902,0.6841745376586914
0,1650775098,755062247,1.9319700197134702,-1.852725311189336,93.58863170572705,-0.197265625,0.80517578125,0.888671875,8.30078125,7.32421875,-0.54931640625,-0.023323101922869682,0.0012198766926303506,-0.7288885116577148,0.6842339634895325
0,1650775098,795068676,1.7607254378336146,-2.1358547949763476,93.40825323993619,0.17724609375,0.03173828125,1.05908203125,-8.97216796875,12.63427734375,1.5869140625,-0.02409808710217476,-0.0015988689847290516,-0.7278062105178833,0.6853574514389038
0,1650775098,817412317,2.4061631599175985,-2.0393615109204037,93.3381891594302,-0.2236328125,-0.30322265625,0.9658203125,0.1220703125,-2.50244140625,0.244140625,-0.027347426861524582,0.003061257302761078,-0.7273836135864258,0.6856791377067566
0,1650775098,832188129,2.948888070376108,-2.0055151488186405,93.29007047672746,0.16943359375,-0.22265625,1.4248046875,-9.70458984375,16.17431640625,1.953125,-0.030382758006453514,0.0066961441189050674,-0.7270715832710266,0.6858564615249634
0,1650775098,874506136,3.102422612068355,-1.7026243269371952,93.20046522500606,-0.39599609375,0.19873046875,1.09912109375,8.36181640625,-10.6201171875,-4.69970703125,-0.029388904571533203,0.009461871348321438,-0.7265073657035828,0.6864648461341858
0,1650775098,914718936,2.729193328175355,-1.87919293455337,93.0539303465526,0.3779296875,-0.03271484375,1.85546875,-3.41796875,11.8408203125,1.52587890625,-0.02827930450439453,0.0060007222928106785,-0.7256636023521423,0.6874422430992126
0,1650775098,934505012,2.6439850107321536,-1.818735088228179,93.05905981861929,-0.26708984375,0.1083984375,1.1552734375,-5.859375,-0.6103515625,0.91552734375,-0.027385279536247253,0.005825345870107412,-0.7256963849067688,0.6874452829360962
0,1650775098,974468689,2.2534034178093245,-1.779198644939266,92.98773898330602,-0.1904296875,0.5244140625,1.1416015625,24.169921875,-11.29150390625,2.99072265625,-0.02479398250579834,0.003573746420443058,-0.7252832651138306,0.6879947185516357
0,1650775098,994493840,2.0030656722275446,-2.098774338302583,92.83151206642032,0.2763671875,0.15771484375,0.75146484375,1.89208984375,-5.4931640625,7.99560546875,-0.02531256526708603,3.482411557342857e-05,-0.7243500351905823,0.6889675259590149
0,1650775099,35086644,1.6995488208199854,-2.0560517184875646,92.33027180398976,0.498046875,0.18115234375,1.24658203125,11.29150390625,3.7841796875,18.798828125,-0.023210367187857628,-0.0017282550688832998,-0.7213277816772461,0.692202627658844
0,1650775099,50284797,1.6104228562792526,-2.3132143171540682,91.98350309982821,0.392578125,0.25439453125,0.75,-6.89697265625,-9.82666015625,22.8271484375,-0.024278175085783005,-0.003917037975043058,-0.7192193269729614,0.6943478584289551
0,1650775099,90675423,2.3529574803870803,-2.3864958436459585,90.55089824217471,-0.17919921875,-0.09716796875,1.6943359375,-12.939453125,-13.671875,34.66796875,-0.02923792228102684,-6.639669300056994e-05,-0.7104950547218323,0.7030946612358093
0,1650775099,114396903,2.1135962756883337,-2.777461421266189,89.70016403010378,0.33056640625,0.142578125,0.65087890625,23.13232421875,-17.76123046875,48.9501953125,-0.030161119997501373,-0.0041754040867090225,-0.7052440047264099,0.7083105444908142
0,1650775099,149846641,0.9651705097982111,-3.0708142041368283,87.15317282822768,0.251953125,0.84716796875,0.6005859375,6.04248046875,-0.3662109375,57.80029296875,-0.024569157510995865,-0.013607016764581203,-0.6892151236534119,0.7240122556686401
0,1650775099,195209578,0.335217787057998,-3.4753355728254185,85.03844380835419,0.57421875,0.83984375,0.505859375,16.9677734375,11.5966796875,56.33544921875,-0.022648705169558525,-0.02037363499403,-0.6755892038345337,0.736648678779602
0,1650775099,215667566,0.8107722693410745,-3.525970326463662,83.25646111427619,0.8857421875,-1.00146484375,0.09716796875,-21.54541015625,-5.67626953125,89.35546875,-0.02572258748114109,-0.01829756237566471,-0.6641262173652649,0.7469537854194641
0,1650775099,257100763,2.1173528797318406,-3.6226576305807163,80.31156358192267,1.12890625,-0.27734375,0.701171875,34.423828125,-19.53125,80.87158203125,-0.034494053572416306,-0.01224512793123722,-0.6448821425437927,0.7634050250053406
0,1650775099,274454556,1.7157588874328356,-3.9073228397139226,78.59748662857295,0.10888671875,0.9404296875,0.92041015625,18.24951171875,-7.2021484375,66.40625,-0.03316933661699295,-0.016901293769478798,-0.6333197951316833,0.772994339466095
0,1650775099,316674866,1.779396933868608,-4.378499597625844,75.49480489620296,0.50146484375,0.283203125,0.5654296875,3.96728515625,-8.30078125,75.01220703125,-0.035651639103889465,-0.020703280344605446,-0.6121298670768738,0.7896819114685059
0,1650775099,338027296,1.8617462835356302,-4.232402705052918,74.08145434181974,0.2626953125,0.451171875,1.19384765625,2.25830078125,2.44140625,72.021484375,-0.03519972041249275,-0.019691264256834984,-0.6023711562156677,0.7971964478492737
0,1650775099,374700984,2.5872052212750143,-4.327025584493335,70.77127146246475,1.1123046875,-0.35498046875,1.93896484375,-37.29248046875,32.8369140625,100.341796875,-0.040247656404972076,-0.017706144601106644,-0.5792113542556763,0.8139907717704773
0,1650775099,389564894,3.1163692180232863,-4.218595477645737,68.7091690501462,0.513671875,-0.49365234375,1.18212890625,8.85009765625,-5.859375,74.8291015625,-0.043195873498916626,-0.015039811842143536,-0.564548134803772,0.8241319060325623
0,1650775099,437626005,3.369532527487336,-4.505643995912455,65.25999182118146,0.33984375,0.2529296875,0.90478515625,8.1787109375,-1.5869140625,76.66015625,-0.04592780023813248,-0.01724974997341633,-0.539535403251648,0.8405323624610901
0,1650775099,449854397,3.589184154118953,-4.157119079360568,63.853088965374724,0.55908203125,-0.06591796875,1.09521484375,-3.35693359375,19.1650390625,71.77734375,-0.0457327738404274,-0.014217794872820377,-0.5291884541511536,0.8471516966819763
0,1650775099,495682363,3.327916825204683,-4.471402123169065,61.26788968528158,0.47802734375,0.1484375,0.814453125,11.3525390625,-5.7373046875,65.185546875,-0.04483542963862419,-0.018767185509204865,-0.5099233984947205,0.858845591545105
0,1650775099,516800998,3.1163916295815004,-3.9401474482045344,59.90204992676496,0.16943359375,0.56640625,1.13671875,8.48388671875,17.9443359375,53.3447265625,-0.040703848004341125,-0.016207465901970863,-0.4995898902416229,0.8651535511016846
0,1650775099,554975311,3.073712125335618,-3.7390653983788895,58.229336599028834,0.447265625,0.0751953125,1.37890625,-17.76123046875,-1.77001953125,43.212890625,-0.03928638994693756,-0.015448816120624542,-0.4868895709514618,0.872442901134491
0,1650775099,574921645,3.1050810497593706,-4.011379064171774,57.24993869846778,0.10107421875,-0.06494140625,1.22802734375,1.77001953125,-7.8125,37.109375,-0.04052836447954178,-0.017737802118062973,-0.4794375002384186,0.8764602541923523
0,1650775099,614766601,3.9811985926636035,-3.7537853098139133,55.888559053479185,0.35791015625,0.03759765625,1.2138671875,25.20751953125,-8.60595703125,34.66796875,-0.04600781202316284,-0.012647093273699284,-0.46908363699913025,0.8818638920783997
0,1650775099,635033482,3.6300999754550913,-3.8760119718981145,54.961555534041295,0.4296875,-0.046875,1.02099609375,2.86865234375,7.01904296875,35.21728515625,-0.04368097335100174,-0.015379920601844788,-0.46190592646598816,0.8857191801071167
0,1650775099,675942994,3.3200919897367873,-3.4477563361739647,53.39689238388019,0.60595703125,0.1416015625,0.791015625,4.0283203125,19.53125,46.142578125,-0.03937928378582001,-0.013854381628334522,-0.44968152046203613,0.8922129273414612
0,1650775099,690455155,3.2806192593062256,-3.247985469225551,52.53903428450493,-0.328125,0.2373046875,1.142578125,9.033203125,-10.3759765625,48.64501953125,-0.03819634020328522,-0.012738767080008984,-0.4429625868797302,0.8956354856491089
0,1650775099,735398312,2.8733705107046847,-3.573360740246149,50.25001591248563,0.53955078125,0.0537109375,1.32275390625,-0.67138671875,-1.77001953125,49.25537109375,-0.03592299297451973,-0.01757916808128357,-0.42496252059936523,0.9043270945549011
0,1650775099,774326393,2.6482167398097993,-3.5488871052329354,48.144914044247265,0.4189453125,-0.10205078125,0.8017578125,-3.11279296875,-4.69970703125,51.6357421875,-0.0337151437997818,-0.018843336030840874,-0.4082404375076294,0.9120570421218872
0,1650775099,796058731,2.619593764875803,-3.3541524355803483,47.22314927990278,0.052734375,0.3369140625,0.72265625,10.6201171875,4.0283203125,47.79052734375,-0.03265475109219551,-0.01765759475529194,-0.4008709490299225,0.9153820872306824
0,1650775099,809901541,2.7745547488875255,-3.4300652924499855,46.26561481487494,0.2392578125,0.24560546875,1.22216796875,-20.08056640625,-13.18359375,50.29296875,-0.03400801122188568,-0.018007036298513412,-0.39323893189430237,0.9186307191848755
0,1650775099,850803436,2.342408039770584,-3.7147772456903243,43.64028817340797,0.62548828125,0.220703125,1.3134765625,8.4228515625,-2.197265625,70.49560546875,-0.0310103427618742,-0.02249002642929554,-0.372036337852478,0.9274274706840515
0,1650775099,869869920,2.195992049297371,-3.68810066122637,42.289864151848064,0.36669921875,0.388671875,1.125,8.1787109375,3.90625,73.2421875,-0.0294688418507576,-0.02309821918606758,-0.36105042695999146,0.9317943453788757
0,1650775099,914453937,2.2395492328516,-4.152613288942475,38.36890868143762,0.60986328125,0.15625,1.0654296875,-6.8359375,-2.5634765625,96.435546875,-0.03034854121506214,-0.027794228866696358,-0.32900065183639526,0.9434325695037842
0,1650775099,934948181,2.1684548609979952,-4.398804896254646,36.45084812852547,0.39306640625,0.0009765625,1.1435546875,-0.8544921875,-17.822265625,103.21044921875,-0.029960326850414276,-0.03053191304206848,-0.3131598234176636,0.9487366080284119
0,1650775099,974422828,2.598937138391569,-4.550320263273508,31.72116752453425,0.1572265625,0.00537109375,0.9609375,25.5126953125,-12.87841796875,98.2666015625,-0.03264424204826355,-0.03198445960879326,-0.27387791872024536,0.960677981376648
0,1650775100,15395124,2.4968911239838167,-4.850200145669741,26.750079006970807,0.43115234375,0.322265625,0.671875,-4.638671875,-2.3193359375,114.1357421875,-0.03096359223127365,-0.036120373755693436,-0.23195895552635193,0.9715614914894104
0,1650775100,35309682,2.432536441293722,-4.843449784335653,24.65978498885303,-0.02001953125,0.50634765625,1.27001953125,24.4140625,-8.9111328125,106.201171875,-0.02973916009068489,-0.036741942167282104,-0.21417751908302307,0.975650429725647
0,1650775100,49615409,2.2003996557461445,-4.870461474955761,22.526419797829153,0.5947265625,0.30712890625,0.58349609375,2.13623046875,2.74658203125,111.02294921875,-0.027111584320664406,-0.03791710361838341,-0.1959042102098465,0.9795145392417908
0,1650775100,91263201,2.2582569075448533,-4.754402046805257,18.649392689065643,0.533203125,0.46142578125,1.1484375,27.03857421875,7.32421875,75.50048828125,-0.026147961616516113,-0.03773188591003418,-0.16266484558582306,0.9856128692626953
0,1650775100,134869415,2.8394756969484964,-4.174813111292309,16.156144830673792,0.05908203125,-0.9462890625,0.39990234375,-20.751953125,1.89208984375,37.17041015625,-0.02963126264512539,-0.032572221010923386,-0.14127947390079498,0.9889900088310242
0,1650775100,150242578,3.3242270289489952,-3.750234465219153,15.609908989538486,0.22705078125,0.46435546875,1.97021484375,-5.7373046875,21.97265625,25.57373046875,-0.03316289186477661,-0.028467515483498573,-0.1366117000579834,0.9896601438522339
0,1650775100,190242191,2.493546892611449,-3.2105242295055585,14.97587448171725,-0.2900390625,0.4267578125,0.380859375,1.64794921875,9.09423828125,12.26806640625,-0.025214340537786484,-0.02493356727063656,-0.13083979487419128,0.9907692074775696
0,1650775100,215393703,2.5643403092547503,-3.1754488602400155,14.775439165428642,0.05810546875,0.0458984375,1.09912109375,-12.02392578125,4.0283203125,10.19287109375,-0.025743769481778145,-0.024594487622380257,-0.12911632657051086,0.9909901022911072
0,1650775100,260218266,3.8552332557824665,-2.7285421123266764,14.466086237540424,-0.37890625,-0.72412109375,1.0986328125,-14.5263671875,5.2490234375,-2.38037109375,-0.03635573014616966,-0.01937207393348217,-0.12659293413162231,0.9910990595817566
0,1650775100,274452792,4.213671338140981,-2.9940183318735554,14.391391288777164,-0.16259765625,-1.16650390625,0.3271484375,-25.81787109375,-20.5078125,3.5400390625,-0.039731089025735855,-0.021298183128237724,-0.12608416378498077,0.9909947514533997
0,1650775100,315035036,4.430752252323734,-2.5930055459842363,14.201159421334907,-0.27099609375,-0.98193359375,0.85595703125,-17.333984375,-10.6201171875,3.60107421875,-0.041144467890262604,-0.01765890046954155,-0.12435544282197952,0.9912270307540894
0,1650775100,335027387,4.261086938246033,-2.624034668496781,14.05654126471729,0.24560546875,0.2666015625,1.40966796875,28.62548828125,0.30517578125,5.79833984375,-0.039687130600214005,-0.018161579966545105,-0.12308724969625473,0.9914356470108032
0,1650775100,375409084,3.3964447534776556,-2.3989445037385413,13.887395898790155,0.11572265625,0.203125,0.85107421875,2.5634765625,6.34765625,3.2958984375,-0.031941007822752,-0.01718861050903797,-0.1214301809668541,0.9919371008872986
0,1650775100,395459484,3.3224904533525197,-2.274193873312609,13.763643970086925,-0.2373046875,0.052734375,1.34912109375,-5.2490234375,-3.90625,8.4228515625,-0.031152445822954178,-0.016220560297369957,-0.12031907588243484,0.9921137690544128
0,1650775100,433183520,2.7307198754548527,-2.019942002449588,13.57477814047867,0.33544921875,0.1865234375,1.21630859375,6.8359375,9.58251953125,7.38525390625,-0.02573969028890133,-0.014682244509458542,-0.11855054646730423,0.9925058484077454
0,1650775100,450695586,2.5589320800925694,-2.091514060658271,13.485237775554388,0.6591796875,0.2333984375,1.4365234375,14.34326171875,17.63916015625,5.37109375,-0.024313200265169144,-0.015498936176300049,-0.11776533722877502,0.9926228523254395
0,1650775100,495572726,2.33826809135991,-1.8124521679654135,13.470376137694087,-0.05712890625,0.27099609375,1.240234375,-5.126953125,-6.53076171875,1.52587890625,-0.02211499772965908,-0.013310876674950123,-0.11756205558776855,0.9927300810813904
0,1650775100,515108624,2.109015139745959,-1.6697635397883235,13.389251419600907,-0.095703125,0.30517578125,1.0869140625,10.986328125,-1.3427734375,2.50244140625,-0.019974520429968834,-0.012323900125920773,-0.11681178957223892,0.9928767085075378
0,1650775100,554591943,1.674843706426932,-1.7298635482340292,13.18074111216605,0.15234375,0.23486328125,0.873046875,22.52197265625,-7.14111328125,6.28662109375,-0.01624932698905468,-0.01331678032875061,-0.11496403068304062,0.9931474924087524
0,1650775100,592439052,0.896126155190962,-1.850760351142488,12.980398857204882,0.1328125,0.2900390625,0.36572265625,10.1318359375,5.31005859375,0.67138671875,-0.009594421833753586,-0.01516241766512394,-0.1131405457854271,0.9934170246124268
0,1650775100,609858830,0.8174543287834626,-1.8301000961202571,12.942353849754266,-0.248046875,0.29052734375,0.9208984375,-20.6298828125,-22.94921875,2.685546875,-0.008887042291462421,-0.015063927508890629,-0.11279933154582977,0.9934638738632202
0,1650775100,654710530,0.911415320204624,-1.6421505790778428,12.847212729710572,-0.0302734375,-0.14306640625,0.6611328125,13.73291015625,-1.52587890625,4.21142578125,-0.00950593315064907,-0.013349825516343117,-0.11197658628225327,0.9935757517814636
0,1650775100,670217550,1.6392277917216063,-1.5772272831393443,12.754434855119705,0.05126953125,-0.53564453125,1.1787109375,-33.02001953125,12.39013671875,2.685546875,-0.01574321649968624,-0.012088203802704811,-0.11124753952026367,0.9935945272445679
0,1650775100,714700510,1.4691267329191988,-1.7157817258778727,12.605774934060731,0.08984375,0.1123046875,0.451171875,20.93505859375,12.51220703125,4.57763671875,-0.01438488531857729,-0.013473435305058956,-0.1099538654088974,0.9937412738800049
0,1650775100,734440825,1.3142299953743573,-1.557380354236874,12.560316610039711,-0.1005859375,0.1708984375,1.0693359375,-6.16455078125,5.18798828125,4.638671875,-0.01288523804396391,-0.012253412045538425,-0.10952772200107574,0.9938246607780457
0,1650775100,769774243,0.8898745577488434,-1.3332056482708279,12.351733731844922,-0.69677734375,0.8310546875,0.84423828125,12.20703125,-4.150390625,3.41796875,-0.008971522562205791,-0.010730917565524578,-0.10765989869832993,0.9940894246101379
0,1650775100,814531413,0.8524426131370877,-1.427277630266002,12.111433162691888,-0.17138671875,0.0400390625,1.03857421875,-2.13623046875,-7.9345703125,3.5400390625,-0.008710725232958794,-0.01160047110170126,-0.10557655245065689,0.9943053722381592
0,1650775100,834900280,0.6886469395165127,-1.4464808138391985,12.059076347609155,0.17578125,0.26220703125,1.05517578125,0.79345703125,10.92529296875,2.0751953125,-0.007301687728613615,-0.011921335943043232,-0.10510633885860443,0.9943627119064331
0,1650775100,875714526,0.42913390200187823,-1.307310266693194,12.001917055766258,-0.18603515625,0.14404296875,0.68798828125,-18.61572265625,-4.45556640625,1.8310546875,-0.004916788544505835,-0.010954106226563454,-0.10458004474639893,0.9944440722465515
0,1650775100,896121089,1.0073587740323815,-1.1059208583548985,11.940628914570086,0.1748046875,-1.2666015625,0.79638671875,-40.52734375,11.90185546875,2.62451171875,-0.009746436960995197,-0.008683801628649235,-0.104088693857193,0.9944823384284973
0,1650775100,930730883,0.5089017603277531,-1.3070586169109613,11.848640780602,0.34521484375,0.13818359375,0.4609375,12.63427734375,4.638671875,1.52587890625,-0.005594239104539156,-0.010886614210903645,-0.10325740277767181,0.9945794343948364
0,1650775100,974416777,0.6220403754735764,-1.5055681400187442,11.79859342323238,0.1474609375,0.31103515625,0.646484375,-1.28173828125,34.85107421875,-0.3662109375,-0.006749412044882774,-0.01251053623855114,-0.10284087806940079,0.9945963025093079
0,1650775101,12193709,0.5046884941052072,-1.2768236106111361,11.843650473639661,-0.06298828125,0.0703125,1.5048828125,-28.74755859375,10.07080078125,1.15966796875,-0.005529990419745445,-0.0106282290071249,-0.10321283340454102,0.9945871829986572
0,1650775101,55027082,0.204092882589151,-1.1891605872132556,11.768357883324025,0.25927734375,0.294921875,0.70849609375,3.72314453125,3.662109375,3.96728515625,-0.002835412509739399,-0.010139926336705685,-0.1025305688381195,0.9946741461753845
0,1650775101,74445955,0.21161249397851192,-1.0839163367266447,11.77303058648996,-0.30908203125,0.26806640625,0.837890625,-5.43212890625,-2.62451171875,-0.6103515625,-0.0028069261461496353,-0.009219538420438766,-0.102571040391922,0.9946789741516113
0,1650775101,115492972,0.5152083728092021,-1.3724758209038161,11.65833719617346,0.6044921875,-0.36376953125,0.3779296875,-17.39501953125,21.728515625,-3.60107421875,-0.005688844248652458,-0.011458178050816059,-0.1016080230474472,0.994742214679718
0,1650775101,150882390,0.7866657036348963,-1.3383106810668834,11.589778318605811,0.2490234375,0.1669921875,0.92236328125,-5.43212890625,24.7802734375,-1.03759765625,-0.008008493110537529,-0.01092565804719925,-0.10103804618120193,0.9947903752326965
0,1650775101,174718975,0.4677772446959592,-1.2308825843148667,11.579596214100613,0.0654296875,0.3935546875,0.88232421875,18.24951171875,-13.36669921875,4.45556640625,-0.005144617985934019,-0.010274610482156277,-0.10091610997915268,0.9948285818099976
0,1650775101,214613467,0.47900335428796276,-1.2410832583968692,11.549750848748596,0.01611328125,0.0009765625,1.36181640625,-24.59716796875,4.638671875,-1.52587890625,-0.005248355679214001,-0.010354648344218731,-0.10065828263759613,0.9948533773422241
0,1650775101,256013288,-0.16723280623782516,-1.194977133621756,11.535073625995885,0.267578125,0.34228515625,0.70849609375,5.06591796875,16.29638671875,1.0986328125,0.0004039836348965764,-0.010521802119910717,-0.1004718765616417,0.9948842525482178
0,1650775101,294788760,-0.27060219647769396,-1.2665774730824708,11.456912356228845,0.3125,0.1298828125,1.2333984375,9.09423828125,5.55419921875,6.103515625,0.0012462958693504333,-0.011233212426304817,-0.0997815951704979,0.9949451684951782
0,1650775101,335268826,0.22587979865931654,-1.185018824533583,11.371041510436152,0.32666015625,-0.1171875,0.9951171875,-24.7802734375,-13.00048828125,3.173828125,-0.0029858381021767855,-0.010094893164932728,-0.0990830734372139,0.9950235486030579
0,1650775101,354769940,0.1940448739072689,-1.231454719379561,11.223418924357373,0.4130859375,-0.01171875,1.1875,3.60107421875,10.6201171875,7.568359375,-0.0027359826490283012,-0.010529167018830776,-0.09779860079288483,0.9951468110084534
0,1650775101,394439821,-0.5030951923987431,-1.4658738553269803,11.081055583939506,0.20458984375,-0.02734375,0.142578125,-3.47900390625,-0.30517578125,-0.3662109375,0.0031344154849648476,-0.013155780732631683,-0.09648509323596954,0.9952425360679626
0,1650775101,435243987,1.1657766875377764,-1.0261560949584914,11.033998995652702,-0.12744140625,-0.85009765625,2.01123046875,0.42724609375,1.3427734375,3.23486328125,-0.010986492037773132,-0.007934820838272572,-0.09622292220592499,0.9952675700187683
0,1650775101,456971621,0.584486234508701,-1.1365573517118734,10.994463299415731,-0.19140625,0.36279296875,0.720703125,39.6728515625,-12.14599609375,-0.6103515625,-0.006026999559253454,-0.00938382837921381,-0.09584205597639084,0.9953340888023376
0,1650775101,490097686,-0.18364840551579711,-1.148001226944524,10.999645705448478,0.18212890625,0.09130859375,1.1513671875,1.03759765625,-10.009765625,0.18310546875,0.0006350224721245468,-0.010125494562089443,-0.09582175314426422,0.9953468441963196
0,1650775101,537846858,0.7468831067315984,-1.1051235404910054,10.964582929344218,-0.07421875,-0.6357421875,1.306640625,-6.34765625,-6.103515625,-0.42724609375,-0.007408960722386837,-0.00897689163684845,-0.09559419751167297,0.9953523278236389
0,1650775101,571021211,0.07658925904088017,-1.049358034125613,11.023304626959755,0.15625,0.74755859375,0.953125,13.5498046875,-2.8076171875,-0.732421875,-0.0015447859186679125,-0.00905071571469307,-0.0960502177476883,0.9953342080116272
0,1650775101,590134672,-0.08993069289307119,-1.1642013684387365,11.017074640663058,0.40185546875,-0.0595703125,0.88818359375,-13.7939453125,16.29638671875,0.67138671875,-0.00019411303219385445,-0.010187809355556965,-0.09598115086555481,0.9953310489654541
0,1650775101,631524509,0.5187264538402875,-1.4402417561975092,10.834911787951524,0.17626953125,-0.6533203125,0.83203125,-45.10498046875,-12.6953125,9.27734375,-0.005692717619240284,-0.012084539979696274,-0.09445983171463013,0.9954391121864319
0,1650775101,655913420,1.0325187363354755,-1.4423276319370075,10.542690682048992,0.1416015625,-0.1806640625,2.013671875,-5.9814453125,5.43212890625,20.20263671875,-0.01012778002768755,-0.011704877018928528,-0.09197451919317245,0.9956411123275757
0,1650775101,694682460,1.605304696713386,-1.6793160929511153,9.22235535133029,0.38134765625,-0.71142578125,1.09033203125,-12.75634765625,10.009765625,40.58837890625,-0.015139616094529629,-0.013479338958859444,-0.08058147877454758,0.9965419173240662
0,1650775101,734496631,1.154976344190988,-2.013519917082484,7.322054997807464,0.576171875,0.25732421875,0.69775390625,24.169921875,-18.00537109375,51.513671875,-0.01117865089327097,-0.01689014956355095,-0.06401713937520981,0.9977433085441589
0,1650775101,750009924,0.670378958251079,-2.1322128100448494,6.385754310248722,0.36083984375,0.48193359375,0.77587890625,14.6484375,-4.0283203125,48.15673828125,-0.006876321509480476,-0.01825101114809513,-0.05579546466469765,0.998251736164093
0,1650775101,775550496,0.543457928494669,-2.3283871555084286,5.394881264995224,0.47216796875,0.15576171875,1.41943359375,-6.89697265625,-10.7421875,56.94580078125,-0.005692487116903067,-0.02007172629237175,-0.04714783653616905,0.9986700415611267
0,1650775101,814706260,0.23811819031108356,-2.223892731726638,3.4134660117761504,0.05126953125,0.41259765625,0.87744140625,22.76611328125,-3.72314453125,36.1328125,-0.0026546369772404432,-0.019335376098752022,-0.02981833927333355,0.9993648529052734
0,1650775101,854788274,0.0071578256405251265,-2.091536899103308,2.3139135577703485,0.1591796875,0.16552734375,0.72265625,-7.26318359375,10.55908203125,20.5078125,-0.0004309544456191361,-0.018246106803417206,-0.020189108327031136,0.9996296167373657
0,1650775101,874606319,-0.048920956455845266,-1.9950771256629798,2.0328329172909294,0.0341796875,0.26904296875,0.8271484375,15.07568359375,3.72314453125,14.46533203125,0.0001179597747977823,-0.017414284870028496,-0.017728762701153755,0.9996911287307739
0,1650775101,914862511,0.23014221022737472,-2.140509142008888,1.4808852237404933,0.001953125,-1.44873046875,-0.06201171875,-34.60693359375,-14.16015625,11.1083984375,-0.002249226439744234,-0.018650833517313004,-0.01295803114771843,0.9997395873069763
0,1650775101,934973103,1.0627714584384602,-1.8462199828917218,1.2715253048059103,0.27685546875,-0.373046875,2.00830078125,-33.26416015625,26.2451171875,10.25390625,-0.009451275691390038,-0.01600603200495243,-0.011243411339819431,0.999764084815979
0,1650775101,975358225,-0.8069427210116659,-1.8877757075757258,1.0001346750463294,-0.09765625,0.86865234375,0.1435546875,54.99267578125,-2.38037109375,4.8828125,0.006896852049976587,-0.01653362065553665,-0.008610312826931477,0.9998024702072144
0,1650775101,995207950,-1.227962358279569,-1.5792616122949505,0.914062018508004,-0.25732421875,0.88720703125,0.890625,-6.103515625,18.1884765625,3.90625,0.01060450728982687,-0.01386545691639185,-0.007827723398804665,0.9998170733451843
0,1650775102,34686469,-0.8664751834260259,-1.5673418649762203,0.7253546706328355,-0.0107421875,-2.134765625,0.37646484375,-57.4951171875,-1.52587890625,0.1220703125,0.007473918609321117,-0.013724402524530888,-0.006225681863725185,0.999858558177948
0,1650775102,55932114,0.02120628995975493,-1.5021302069887006,0.6442533779540743,-0.1748046875,-0.85986328125,1.517578125,-66.650390625,2.44140625,1.0986328125,-0.0002587370399851352,-0.0131069365888834,-0.005624084267765284,0.9998982548713684
0,1650775102,95294568,0.45227346233197074,-1.4644077125329549,0.4061738209004837,-0.0595703125,-0.5751953125,0.69775390625,-20.01953125,2.25830078125,1.220703125,-0.003991768695414066,-0.012764851562678814,-0.003594646928831935,0.9999040961265564
0,1650775102,112104099,0.8646745214452285,-1.3839774325792944,0.3083839214801484,-0.0810546875,-0.88134765625,0.08203125,-25.45166015625,-9.21630859375,5.37109375,-0.007577559910714626,-0.012056495994329453,-0.0027820111718028784,0.9998947381973267
0,1650775102,150799282,0.8383814414309999,-1.466972235122883,0.2776424673255375,0.10205078125,0.0908203125,1.00830078125,23.62060546875,-12.939453125,1.953125,-0.007346587721258402,-0.01278329361230135,-0.0025162789970636368,0.9998881220817566
0,1650775102,174911743,0.18526045022183912,-1.3521746844215399,0.3256324970119578,-0.1259765625,0.74853515625,1.12109375,28.13720703125,-3.2958984375,1.220703125,-0.0016501132631674409,-0.01179501973092556,-0.0028605505358427763,0.9999250173568726
0,1650775102,214518552,0.33219091935819806,-1.3986151683008665,0.29721143954530005,-0.287109375,-0.9521484375,-0.06396484375,-31.8603515625,-9.765625,2.50244140625,-0.0029303382616490126,-0.012197306379675865,-0.0026288325898349285,0.9999179244041443
0,1650775102,237132212,1.4579116690237437,-1.2993900220203294,0.23781870252423437,0.0244140625,-0.275390625,2.65185546875,-10.80322265625,15.13671875,3.7841796875,-0.012745020911097527,-0.011311729438602924,-0.0022193158511072397,0.9998523592948914
0,1650775102,275163611,0.4940644016555169,-1.3623005465877895,0.19856339088877611,-0.07177734375,0.1171875,0.70263671875,17.578125,-4.0283203125,-0.1220703125,-0.004331799689680338,-0.011880435049533844,-0.0017839082283899188,0.999918520450592
0,1650775102,314700531,0.020715765316976987,-1.293311153659018,0.22956609977914003,0.07470703125,0.2578125,1.0419921875,17.63916015625,5.37109375,1.5869140625,-0.0002033770433627069,-0.011285644955933094,-0.002005253452807665,0.9999342560768127
0,1650775102,334933620,0.24185336997215495,-1.2580877613875565,0.23699216959338348,-0.1494140625,-1.076171875,0.14208984375,-31.06689453125,3.47900390625,1.0986328125,-0.002133141038939357,-0.01097425352782011,-0.002091187285259366,0.9999353289604187
0,1650775102,355542906,1.2432478947552343,-1.2737713698257866,0.19434168031126034,-0.369140625,-0.85693359375,1.24755859375,-9.09423828125,-24.96337890625,3.72314453125,-0.010867336764931679,-0.011096455156803131,-0.0018163397908210754,0.9998777508735657
0,1650775102,394521964,1.6052234814952862,-1.3209672299386344,-0.059419457468150715,0.26220703125,-0.8984375,1.42578125,-0.30517578125,7.2021484375,5.67626953125,-0.01400084886699915,-0.01153348758816719,0.00035697477869689465,0.9998354911804199
0,1650775102,411822317,1.1812153696612382,-1.3395538822175315,-0.055355001324103884,0.041015625,0.27392578125,0.68310546875,31.79931640625,-7.6904296875,1.0986328125,-0.010301513597369194,-0.011693903245031834,0.00036251056008040905,0.9998785257339478
0,1650775102,455959704,0.6469418044444148,-1.162285927263371,-0.01791495253281537,-0.26611328125,0.53759765625,0.82177734375,11.90185546875,7.75146484375,-0.18310546875,-0.005643725860863924,-0.010143403895199299,9.906535706249997e-05,0.9999327063560486
0,1650775102,474734729,0.5618868460924212,-1.2139246119879004,-0.03812858388645737,0.25537109375,0.16064453125,1.23583984375,-2.5634765625,-0.91552734375,2.38037109375,-0.004899567924439907,-0.01059479545801878,0.0002807691926136613,0.9999318718910217
0,1650775102,490495513,0.9382634064497689,-1.212879699766594,-0.044386738043374944,-0.05078125,-1.38525390625,0.18896484375,-28.86962890625,-2.25830078125,3.72314453125,-0.008183241821825504,-0.010586990043520927,0.00030065159080550075,0.9999104142189026
0,1650775102,536726267,1.1777731677629633,-0.987199897583912,0.09170495459190102,-0.2626953125,0.08740234375,1.09423828125,-9.033203125,-13.36669921875,-1.64794921875,-0.010284338146448135,-0.008606154471635818,-0.00088874640641734,0.9999096989631653
0,1650775102,554611042,0.442957004262794,-1.0609425685664835,0.0859765336319495,0.15380859375,0.46044921875,0.66943359375,22.52197265625,-1.77001953125,1.3427734375,-0.0038722988683730364,-0.00925536546856165,-0.0007860371842980385,0.9999494552612305
0,1650775102,594389981,0.8158622010157621,-0.9550065479829974,0.07431442585118908,0.10888671875,-1.099609375,0.38134765625,-34.60693359375,4.08935546875,2.9296875,-0.007124836090952158,-0.008329077623784542,-0.0007078114431351423,0.9999396800994873
0,1650775102,614490717,1.5472280250875907,-1.0066979532301827,0.09855499399918911,-0.28369140625,-0.9609375,1.06103515625,-14.83154296875,-6.89697265625,-1.28173828125,-0.013508731499314308,-0.00877256877720356,-0.0009785551810637116,0.9998697638511658
0,1650775102,654974304,0.6528929269239058,-1.1118494625544695,0.1026006070920589,0.1259765625,0.35009765625,0.43701171875,28.076171875,-14.58740234375,2.74658203125,-0.005705951247364283,-0.00969730131328106,-0.0009505829657427967,0.9999363422393799
0,1650775102,674725916,-0.28736083933868717,-1.088519030453587,0.09489715422427622,0.03076171875,1.45654296875,0.0859375,49.25537109375,-8.4228515625,0.6103515625,0.0024997133295983076,-0.009501021355390549,-0.0008042732952162623,0.9999514222145081
0,1650775102,714501687,-0.2854344591884791,-1.3679576507678526,0.1500134057523338,-0.13037109375,-1.0576171875,0.01220703125,-29.11376953125,-22.15576171875,1.03759765625,0.002475075889378786,-0.011940611526370049,-0.0012792815687134862,0.999924898147583
0,1650775102,734952250,1.1741345979260505,-0.841828392445182,0.23429942087395886,-0.40673828125,-0.21826171875,2.8779296875,-52.18505859375,29.11376953125,-4.5166015625,-0.01026079896837473,-0.007324921432882547,-0.0021197544410824776,0.9999183416366577
0,1650775102,755110555,0.6056858076710983,-1.0175648909213788,0.12330353745638901,-0.08154296875,0.04833984375,0.87548828125,23.01025390625,-10.7421875,4.5166015625,-0.005294924136251211,-0.008873995393514633,-0.0011229035444557667,0.9999460577964783
0,1650775102,796616681,1.3567206022010065,-1.0865114884461322,-0.07241904835651054,0.08154296875,-0.6142578125,1.57861328125,-39.0625,18.00537109375,-2.25830078125,-0.01183281745761633,-0.009488274343311787,0.000519648427143693,0.9998849034309387
0,1650775102,829750330,1.0966025593362971,-1.0805933429737276,0.06641490519956604,-0.53076171875,-0.0625,0.58642578125,3.47900390625,0.3662109375,-4.150390625,-0.009574553929269314,-0.009423836134374142,-0.0006697656936012208,0.9999095797538757
0,1650775102,854850097,1.0707645940363735,-1.062769644169462,0.07377384706087298,0.162109375,-0.29248046875,0.81982421875,-8.30078125,5.92041015625,-0.06103515625,-0.009349613450467587,-0.009267858229577541,-0.0007304016617126763,0.9999131560325623
0,1650775102,895596471,2.0101985241551534,-1.0138280303934415,0.20510567157701698,-0.21923828125,-0.578125,0.50146484375,-13.36669921875,-1.28173828125,-10.92529296875,-0.017556509003043175,-0.0088144326582551,-0.0019447302911430597,0.9998050928115845
0,1650775102,915963866,1.8821113463196695,-1.114094140192171,0.2941198451309437,-0.3037109375,-0.3876953125,-0.11767578125,15.56396484375,-27.34375,-0.18310546875,-0.016447901725769043,-0.009678656235337257,-0.002725883387029171,0.9998142123222351
0,1650775102,959574303,2.6595230507636978,-0.8768395686046971,0.3775288879755229,-0.12060546875,0.029296875,1.83251953125,28.74755859375,-4.08935546875,-5.79833984375,-0.023231029510498047,-0.007573239039629698,-0.0034711428452283144,0.9996954202651978
0,1650775102,979588158,2.026962156255892,-1.0156415523397855,0.4068865084516922,-0.00439453125,0.48193359375,0.50146484375,25.5126953125,-1.953125,-2.3193359375,-0.017718318849802017,-0.008798784576356411,-0.0037068172823637724,0.9997974038124084
0,1650775103,14448706,1.2734575012890834,-1.03340431305005,0.37456784088776374,-0.2099609375,0.34814453125,0.80419921875,11.3525390625,-6.591796875,1.0986328125,-0.011141748167574406,-0.008981103077530861,-0.0033685953821986914,0.9998919367790222
0,1650775103,31802692,1.5173258837880979,-1.305017137401068,0.328397229521932,0.01513671875,-1.2412109375,-0.02099609375,-11.71875,-4.82177734375,3.23486328125,-0.013272499665617943,-0.011349189095199108,-0.0030161533504724503,0.9998429417610168
0,1650775103,50361458,2.5618709824263792,-0.8282182266677267,0.3599211138624796,-0.57080078125,-1.01025390625,1.37646484375,-30.76171875,3.41796875,-1.46484375,-0.02237667888402939,-0.007155450526624918,-0.0033015997614711523,0.9997185468673706
0,1650775103,94752801,1.7817131150491827,-0.9108315524739995,0.24431824116930975,-0.072265625,0.32763671875,0.25341796875,31.79931640625,-10.43701171875,2.86865234375,-0.015564169734716415,-0.007914293557405472,-0.0022553319577127695,0.9998450875282288
0,1650775103,134290905,0.9611422990134902,-0.7477643078562358,0.3042504297326742,-0.06640625,0.0927734375,1.42529296875,-18.310546875,14.6484375,-1.15966796875,-0.008404566906392574,-0.006502906326204538,-0.0027096641715615988,0.9999399185180664
0,1650775103,150327243,0.8852014276960852,-0.7346174743644307,0.34690293338699396,-0.212890625,0.1259765625,0.89111328125,7.6904296875,-11.71875,-1.8310546875,-0.007743974681943655,-0.006387097295373678,-0.00307666277512908,0.9999449849128723
0,1650775103,171230196,1.1785893753687797,-0.8641962481207689,0.3692649193687628,-0.2333984375,-1.44873046875,0.82470703125,-49.25537109375,-13.97705078125,-2.3193359375,-0.010308904573321342,-0.007507883012294769,-0.003299739444628358,0.9999133348464966
0,1650775103,212525472,1.6886578707449886,-0.7460580945850549,0.242720830677173,0.43017578125,0.30859375,0.6279296875,16.9677734375,-4.94384765625,14.09912109375,-0.01474922988563776,-0.006478605791926384,-0.002213799860328436,0.9998677968978882
0,1650775103,237667736,1.3671877603823452,-0.9938379876835182,-0.07942814312605266,-0.10498046875,0.81689453125,1.37060546875,34.0576171875,-21.240234375,22.27783203125,-0.011924219317734241,-0.008680414408445358,0.0005895938957110047,0.9998910427093506
0,1650775103,273510407,1.359107326429103,-1.7900684641165183,-1.490419740935008,0.189453125,-0.16943359375,0.85546875,-10.498046875,-17.9443359375,45.654296875,-0.011654571630060673,-0.015772473067045212,0.012818248011171818,0.9997255802154541
0,1650775103,309839836,2.1183310908870334,-2.267598045008492,-4.236546922331823,-0.07666015625,0.3291015625,0.72509765625,30.33447265625,-25.69580078125,70.98388671875,-0.017737364396452904,-0.020453445613384247,0.03658335655927658,0.9989638328552246
0,1650775103,335499705,1.5078793052791473,-2.9122872210481248,-5.8390044973783715,1.09765625,0.880859375,1.2109375,37.7197265625,-8.9111328125,81.23779296875,-0.011842845007777214,-0.02604655921459198,0.050578076392412186,0.9983102083206177
0,1650775103,355428023,0.9509295653787345,-2.8504883097680844,-7.2917426182709475,-0.19970703125,0.95166015625,0.36962890625,17.7001953125,1.52587890625,82.8857421875,-0.006697389297187328,-0.0253489688038826,0.06336168199777603,0.997646152973175
0,1650775103,396313311,0.4418467249966967,-3.1448461976637736,-11.784610318454071,0.47021484375,1.1923828125,0.99658203125,8.6669921875,0.9765625,101.9287109375,-0.001017021480947733,-0.02769101783633232,0.10251426696777344,0.9943456053733826
0,1650775103,434762411,-0.3982449584498774,-3.031203375818986,-16.1107718840174,-0.07177734375,0.64306640625,0.3173828125,23.49853515625,-11.65771484375,99.67041015625,0.007146145217120647,-0.025701193138957024,0.14017142355442047,0.9897679090499878
0,1650775103,455528338,-0.7858139577010546,-3.2308047686986185,-17.963549488842567,0.29296875,0.96826171875,0.5498046875,18.73779296875,-5.0048828125,101.98974609375,0.011171671561896801,-0.02677386812865734,0.15624549984931946,0.9872921109199524
0,1650775103,490614649,-1.3357205452675676,-3.5455953809398126,-22.039210451501095,0.38720703125,1.0595703125,1.11279296875,13.36669921875,-17.15087890625,81.11572265625,0.017348602414131165,-0.028136814013123512,0.19139434397220612,0.9809564352035522
0,1650775103,510389109,-1.6384421065236432,-3.647388891791686,-23.506369236165682,0.2783203125,0.712890625,0.9326171875,13.36669921875,1.953125,77.57568359375,0.02047254890203476,-0.028242796659469604,0.20401765406131744,0.9783455729484558
0,1650775103,555575916,-1.6047147391238261,-4.313357095303671,-26.67677741679823,0.7197265625,0.10986328125,0.57080078125,-23.86474609375,-26.42822265625,71.47216796875,0.022296898066997528,-0.03338521346449852,0.2310284674167633,0.9721183776855469
0,1650775103,574900451,-0.7669939584124662,-4.649998336473382,-28.085876178423124,1.32275390625,-0.3896484375,1.74169921875,-39.48974609375,5.18798828125,69.9462890625,0.01633136160671711,-0.037731703370809555,0.24270720779895782,0.9692279100418091
0,1650775103,590644947,-0.8159025951814004,-5.45969634512406,-29.118773243205595,1.22265625,0.15087890625,0.72509765625,16.6015625,-21.728515625,51.8798828125,0.018855853006243706,-0.04430840536952019,0.25141990184783936,0.966679573059082
0,1650775103,634965728,-0.8309576661334307,-5.85043652650168,-31.41288352125114,0.53125,0.626953125,0.9814453125,19.47021484375,7.01904296875,50.10986328125,0.020786132663488388,-0.047165270894765854,0.27070504426956177,0.9612815976142883
0,1650775103,654704476,-0.863984779060763,-5.940598865527257,-32.54723792351227,0.55859375,0.04345703125,0.54638671875,-5.55419921875,-3.662109375,66.83349609375,0.021748168393969536,-0.04763079434633255,0.2802153527736664,0.9585080742835999
0,1650775103,694684025,0.12098117975709212,-5.71554199794122,-36.105739160332234,0.6005859375,0.173828125,1.40966796875,21.91162109375,5.0048828125,75.68359375,0.014447810128331184,-0.047729168087244034,0.30945885181427,0.949604332447052
0,1650775103,714948923,-0.38207645994142914,-5.893061175790791,-37.60249656976507,0.32666015625,0.818359375,0.81005859375,27.77099609375,-1.46484375,79.9560546875,0.019718868657946587,-0.04758775979280472,0.32202067971229553,0.9453302621841431
0,1650775103,756945774,-0.05202634465067387,-5.759189468058541,-41.75788120796328,0.31982421875,-0.056640625,1.30419921875,-3.662109375,0.3662109375,103.69873046875,0.018327953293919563,-0.04677684232592583,0.35596588253974915,0.9331474900245667
0,1650775103,775566334,0.48874144313625556,-5.489532745852792,-43.864495963102804,0.494140625,-0.78076171875,0.59912109375,-23.4375,32.04345703125,114.501953125,0.013934222050011158,-0.046011943370103836,0.37288856506347656,0.9266298413276672
0,1650775103,814587792,0.3898791239749489,-5.631855958909286,-48.45206765122274,0.36669921875,0.333984375,0.9140625,9.3994140625,9.58251953125,101.98974609375,0.017059754580259323,-0.046195123344659805,0.4096871614456177,0.9108959436416626
0,1650775103,837321165,0.15430328481941746,-5.536681968580212,-50.41692866032782,0.39306640625,0.6484375,0.6787109375,28.25927734375,0.30517578125,107.0556640625,0.019353780895471573,-0.04427098482847214,0.4253566563129425,0.9037351608276367
0,1650775103,876967207,0.09263720871254164,-5.645009195703437,-55.212155174689066,0.4345703125,0.2841796875,0.80224609375,-0.8544921875,8.48388671875,103.82080078125,0.02210276946425438,-0.0440102256834507,0.46279245615005493,0.8850976228713989
0,1650775103,890599199,0.4357254080769108,-5.605030817830884,-57.140416615126625,0.080078125,-0.61865234375,0.42919921875,-14.83154296875,-2.3193359375,102.6611328125,0.020047076046466827,-0.04475589096546173,0.47749656438827515,0.8772640228271484
0,1650775103,934554760,1.051352449363257,-5.324256255203646,-61.59957050156657,0.5537109375,0.01904296875,1.2001953125,9.70458984375,6.65283203125,101.318359375,0.015909118577837944,-0.044586535543203354,0.5110995173454285,0.8582168817520142
0,1650775103,954475910,1.105166762781847,-5.358839210518713,-63.57374788869954,0.53857421875,-0.236328125,0.65283203125,0.9765625,7.9345703125,106.0791015625,0.016434919089078903,-0.04480893909931183,0.5257775187492371,0.8492820858955383
0,1650775103,996184566,1.935276471601991,-5.4246510713795475,-68.27853245316606,0.39111328125,-0.203125,0.91064453125,1.89208984375,4.33349609375,104.3701171875,0.01259138248860836,-0.04862799122929573,0.5598362684249878,0.8270793557167053
0,1650775104,15437965,1.9325507992363329,-5.379105235559787,-70.22823044231372,0.1044921875,0.22705078125,1.2216796875,8.7890625,-1.40380859375,103.8818359375,0.013207740150392056,-0.048068542033433914,0.5738441348075867,0.8174460530281067
0,1650775104,55357929,1.5884975221566886,-5.447389198013343,-74.99490335084973,0.5517578125,0.373046875,0.65771484375,19.53125,7.8125,106.5673828125,0.017938338220119476,-0.04612595960497856,0.6074574589729309,0.792809009552002
0,1650775104,70008300,1.4851744758175554,-5.489139583088693,-77.02128387380911,0.60009765625,0.3115234375,1.0498046875,10.92529296875,-2.01416015625,106.4453125,0.01968296244740486,-0.04552586376667023,0.6214079260826111,0.7819157242774963
0,1650775104,110102123,1.621796615351205,-5.4678264046704905,-81.59986020279213,0.44580078125,0.0458984375,1.17626953125,9.82666015625,-1.15966796875,104.43115234375,0.020462388172745705,-0.045340243726968765,0.652099609375,0.7564995884895325
0,1650775104,139215983,1.5940698893023613,-5.231059604639292,-83.53416977573974,0.232421875,0.14892578125,0.8095703125,7.32421875,19.10400390625,100.76904296875,0.020029474049806595,-0.0432891845703125,0.6648723483085632,0.7454325556755066
0,1650775104,175211328,2.120287086310596,-5.090955776176227,-87.56789508444169,0.63818359375,0.23486328125,1.794921875,6.77490234375,1.03759765625,100.5859375,0.017381098121404648,-0.04484781250357628,0.6905466318130493,0.7216868996620178
0,1650775104,190698924,1.902298610741877,-5.18079111989529,-90.22564463389871,0.0693359375,0.2294921875,0.96044921875,14.95361328125,-12.51220703125,104.55322265625,0.02031371183693409,-0.04363967105746269,0.7071468830108643,0.7054262757301331
0,1650775104,215806660,1.920548876204151,-5.0897908020359175,-92.24227164672331,0.10888671875,0.2158203125,0.86669921875,-1.15966796875,9.521484375,106.50634765625,0.020395996049046516,-0.04284064844250679,0.7194790244102478,0.6928914785385132
0,1650775104,254495827,1.6101928710032936,-5.049579343957937,-96.77580287813011,0.2890625,0.0,0.791015625,0.6103515625,2.685546875,95.458984375,0.023610228672623634,-0.03974633291363716,0.7464473247528076,0.6638367772102356
0,1650775104,274715092,1.8953461184970386,-5.215917075249373,-98.67412418434093,-0.01806640625,-0.5810546875,-0.0185546875,-5.31005859375,-13.61083984375,103.57666015625,0.02374495007097721,-0.0421782024204731,0.7571762800216675,0.6514148116111755
0,1650775104,310342625,2.810108017951557,-5.127641149095189,-103.03203759180835,0.41357421875,-0.7275390625,1.0283203125,-4.39453125,12.63427734375,91.73583984375,0.019761376082897186,-0.047003164887428284,0.781080961227417,0.6223446130752563
0,1650775104,334982515,2.9183044042634947,-4.647416098080294,-104.65830563318838,0.33544921875,0.25390625,1.15576171875,-6.40869140625,19.53125,84.228515625,0.016533518210053444,-0.044909413903951645,0.789996325969696,0.6112411022186279
0,1650775104,370171899,3.6076653653525383,-4.5082539819490455,-108.6084908981519,0.0751953125,0.150390625,1.46337890625,5.7373046875,5.859375,80.62744140625,0.013574189506471157,-0.0484820120036602,0.810373842716217,0.583746075630188
0,1650775104,395372212,3.737149957203524,-4.336253596948846,-110.23443109045178,0.330078125,-0.51171875,0.61376953125,-12.39013671875,3.23486328125,91.1865234375,0.01238334458321333,-0.04835370182991028,0.8185951113700867,0.5721980333328247
0,1650775104,436140314,3.93421158692897,-4.411171380633777,-114.12604065309326,0.541015625,0.08935546875,0.93994140625,10.6201171875,-0.54931640625,89.111328125,0.013630789704620838,-0.049699895083904266,0.8374348878860474,0.5441020727157593
0,1650775104,454441605,3.8359136388282624,-4.432843143983404,-115.80897194382771,0.3525390625,0.185546875,0.99951171875,12.0849609375,0.30517578125,92.4072265625,0.014975483529269695,-0.04886934906244278,0.8453677892684937,0.5317338109016418
0,1650775104,495798418,3.624150026914364,-4.1706565142955325,-119.78535781444741,0.45703125,0.15087890625,1.1240234375,9.58251953125,-0.54931640625,88.5009765625,0.01561142597347498,-0.04558092728257179,0.863504946231842,0.5020337700843811
0,1650775104,511559682,3.677620589718632,-4.123158951920441,-121.31251981097056,0.568359375,0.12158203125,1.3271484375,0.06103515625,4.2724609375,77.0263671875,0.015627488493919373,-0.04557237774133682,0.8701170086860657,0.4904848635196686
0,1650775104,556104370,3.3575754275715823,-3.8024102802888806,-124.2546101355752,0.0302734375,0.34912109375,0.66064453125,10.92529296875,0.48828125,61.1572265625,0.01562611013650894,-0.04138673096895218,0.8826683163642883,0.46790996193885803
0,1650775104,572189029,3.228266926535136,-3.7822928118622543,-125.40631663342276,0.37890625,0.13916015625,0.94091796875,7.87353515625,8.056640625,61.09619140625,0.01640329323709011,-0.04014599323272705,0.8873797655105591,0.4589950740337372
0,1650775104,614732830,3.6815509366991512,-3.729004102844638,-127.96870308168806,0.5546875,0.109375,0.93603515625,-0.8544921875,19.83642578125,52.001953125,0.015142318792641163,-0.043115437030792236,0.8972765803337097,0.43909752368927
0,1650775104,634345145,3.3829907749166117,-3.8248828833186916,-128.97194858773622,0.56298828125,-0.1943359375,0.65478515625,25.81787109375,1.220703125,53.8330078125,0.017397405579686165,-0.04099266231060028,0.9011598825454712,0.43119359016418457
0,1650775104,656288621,3.4033163506695114,-3.6494366678822203,-129.87724918108637,0.263671875,0.12548828125,1.2021484375,-4.7607421875,17.63916015625,48.095703125,0.01625930145382881,-0.040367819368839264,0.9045954346656799,0.4240438640117645
0,1650775104,695335360,3.1527506475241824,-3.4281169809892393,-131.9236421583139,0.26318359375,0.06689453125,0.83203125,15.80810546875,-5.18798828125,48.15673828125,0.016106227412819862,-0.03729214519262314,0.9121849536895752,0.4077604115009308
0,1650775104,736864015,3.6601869587489975,-3.1324916661156896,-133.68677353028266,0.08203125,0.03759765625,0.9365234375,8.30078125,4.5166015625,33.38623046875,0.0125639159232378,-0.04009480029344559,0.9182778596878052,0.3937010169029236
0,1650775104,754406002,4.118697984618777,-3.224033276466786,-134.3225821797408,-0.19189453125,-0.39306640625,1.46240234375,-29.47998046875,-17.15087890625,32.04345703125,0.011966976337134838,-0.04401611164212227,0.9202490448951721,0.38866570591926575
0,1650775104,771492464,4.741593307677368,-3.3612793110924333,-135.1371505401565,0.37646484375,-0.78076171875,1.1943359375,-30.8837890625,-4.5166015625,43.3349609375,0.01130850613117218,-0.04940154775977135,0.9226855039596558,0.3822082579135895
0,1650775104,815885951,4.1766824486907765,-3.186776302091659,-136.91252161111794,0.34423828125,0.0673828125,0.5166015625,13.00048828125,4.150390625,41.56494140625,0.012470348738133907,-0.04408544674515724,0.9287882447242737,0.3677680790424347
0,1650775104,854673966,3.983147331011173,-3.1990808878814367,-138.7961648408024,0.23974609375,0.0791015625,1.134765625,9.46044921875,-0.732421875,55.72509765625,0.013888989575207233,-0.0423334576189518,0.9347764849662781,0.3524315059185028
0,1650775104,870144955,3.799412254130068,-3.214471011628768,-140.20209097955782,0.37646484375,0.12939453125,0.9091796875,0.67138671875,2.25830078125,55.48095703125,0.015080167911946774,-0.040699735283851624,0.9390913844108582,0.3409157991409302
0,1650775104,890640415,3.635650357929373,-3.2078775312021786,-141.23896833707911,0.19921875,0.06103515625,1.24755859375,3.90625,-6.89697265625,56.33544921875,0.01586858555674553,-0.03919615224003792,0.9421967267990112,0.33238106966018677
0,1650775104,930039126,3.1676466497737454,-3.332641181676216,-143.78130134994126,0.435546875,0.203125,0.93896484375,8.7890625,-8.85009765625,58.837890625,0.019040141254663467,-0.0352943018078804,0.9494503140449524,0.31134530901908875
0,1650775104,955266543,3.0154525327061132,-3.363162949199476,-144.8322488971528,0.24072265625,0.17626953125,1.27392578125,-0.244140625,5.9814453125,54.931640625,0.020018713548779488,-0.03393362835049629,0.9523020386695862,0.3026030957698822
0,1650775104,989812719,2.4066498108959617,-3.3950321849799323,-147.37842047632847,0.15234375,0.265625,0.8271484375,11.5966796875,-4.45556640625,60.6689453125,0.022529058158397675,-0.02846406027674675,0.9589449763298035,0.2812594175338745
0,1650775105,17865192,2.294399280424799,-3.416079199463915,-148.54941542839214,0.1376953125,0.18408203125,1.13525390625,-15.5029296875,4.5166015625,62.255859375,0.02326134964823723,-0.027339864522218704,0.9617899060249329,0.2714250683784485
0,1650775105,30277010,2.5609200920278665,-3.6048773675107038,-149.84517061583526,0.17919921875,-0.30322265625,1.14208984375,-11.65771484375,-12.87841796875,71.044921875,0.02455299161374569,-0.029746150597929955,0.9646737575531006,0.2606090009212494
0,1650775105,75647819,2.777092164164185,-4.00856374557326,-153.40848030583092,0.38671875,-0.18359375,0.642578125,-16.41845703125,-30.33447265625,96.3134765625,0.02845725230872631,-0.031609293073415756,0.9721199870109558,0.23059424757957458
0,1650775105,91819807,3.085729843180255,-3.9861842038708897,-155.2134670770335,0.2626953125,0.14794921875,1.63232421875,2.38037109375,-7.2021484375,91.9189453125,0.028181131929159164,-0.03374307602643967,0.9755517840385437,0.21532750129699707
0,1650775105,134528827,2.940763773801789,-4.167100547058895,-159.8756176007008,0.34521484375,0.17236328125,0.9873046875,-0.42724609375,-9.521484375,115.29541015625,0.03130548447370529,-0.031598854809999466,0.9834808111190796,0.17546261847019196
0,1650775105,155185089,3.064058933604274,-4.242561757669665,-162.12374704525382,0.67041015625,-0.0146484375,1.04296875,-0.30517578125,-5.9814453125,115.966796875,0.03240129351615906,-0.032141879200935364,0.9866730570793152,0.15618343651294708
0,1650775105,197933213,3.328339870046401,-4.4455080222519,-167.4419508990792,0.38134765625,-0.49169921875,0.4931640625,-18.1884765625,-8.72802734375,116.63818359375,0.03536186367273331,-0.033085327595472336,0.992711067199707,0.11036166548728943
0,1650775105,214805273,3.5293124234019135,-4.304264405971091,-169.59568712930263,0.19873046875,0.16064453125,1.10302734375,8.7890625,-14.22119140625,105.5908203125,0.034590400755405426,-0.03404902666807175,0.9946017861366272,0.09171474725008011
0,1650775105,234621014,3.7676407754321075,-4.353616791592665,-171.6255510487387,0.826171875,-0.40478515625,0.94677734375,-11.65771484375,-4.0283203125,106.689453125,0.035462960600852966,-0.03553342446684837,0.9959813356399536,0.07416900247335434
0,1650775105,278538143,3.628463291375227,-3.968879492721839,-175.46451351325774,0.33544921875,0.07666015625,1.3662109375,-23.13232421875,31.8603515625,75.1953125,0.03333164379000664,-0.03298477828502655,0.9980736970901489,0.04062119871377945
0,1650775105,297263535,3.7916279729103692,-3.566011243255804,-177.0426287209892,-0.015625,0.1337890625,0.9248046875,-9.46044921875,8.23974609375,50.23193359375,0.030233636498451233,-0.03385759890079498,0.9986094832420349,0.02680746093392372
0,1650775105,334625456,3.6164003235273383,-3.2854644247487035,-178.30706066089863,0.09033203125,0.07958984375,0.7060546875,-6.2255859375,11.77978515625,22.94921875,0.028183799237012863,-0.03196068853139877,0.9989688992500305,0.01566416397690773
0,1650775105,353360672,3.572043794396806,-2.9402843798994187,-178.64954000626142,-0.1513671875,0.09765625,0.91015625,-11.16943359375,-1.3427734375,16.2353515625,0.025274591520428658,-0.03145669400691986,0.9991063475608826,0.012574676424264908
0,1650775105,391350919,4.479918088403601,-2.709881395183967,-179.41946625026193,0.40771484375,-0.337890625,2.0009765625,-9.521484375,31.005859375,17.27294921875,0.02342965081334114,-0.03919297456741333,0.998939037322998,0.0059849596582353115
0,1650775105,414649387,4.09350013611013,-2.601590666884119,-179.63199441647606,0.30029296875,0.048828125,0.82373046875,16.29638671875,10.6201171875,10.92529296875,0.022571943700313568,-0.03577840328216553,0.999096691608429,0.004019382409751415
0,1650775105,454180387,3.8013511740807053,-2.4945688596660123,-179.9730257617348,0.099609375,0.06982421875,1.12060546875,-6.4697265625,4.5166015625,12.75634765625,0.021747717633843422,-0.03316422551870346,0.9992128610610962,0.0009571703267283738
0,1650775105,474831305,3.7165543755349972,-2.4122956025752122,179.90853511559152,0.064453125,0.01708984375,1.38671875,-7.14111328125,12.51220703125,7.50732421875,0.02106449194252491,-0.032403379678726196,0.99925297498703,-0.00011495096987346187
0,1650775105,514582148,3.1811977450870508,-1.8790004085961403,-179.96155104392918,-0.005859375,0.28857421875,1.15087890625,-3.0517578125,17.88330078125,-15.31982421875,0.016381004825234413,-0.027759388089179993,0.999480128288269,0.0007905171369202435
0,1650775105,534577666,3.089218148855428,-1.5175735848672167,-179.49067780254848,-0.3798828125,0.32421875,1.00732421875,-4.21142578125,20.263671875,-28.13720703125,0.013118201866745949,-0.027011457830667496,0.9995375275611877,0.004799583461135626
0,1650775105,574525343,2.6499469121039283,-0.720151934115137,-177.94523821980638,-0.13037109375,0.13916015625,1.09765625,0.6103515625,11.53564453125,-39.12353515625,0.005867185536772013,-0.023231564089655876,0.9995496273040771,0.018070369958877563
0,1650775105,600778308,2.3841108269651548,-0.5673682329839151,-176.9348210151297,-0.21923828125,0.287109375,1.27490234375,7.26318359375,-5.92041015625,-38.51318359375,0.004391957074403763,-0.020928489044308662,0.9994109272956848,0.026842396706342697
0,1650775105,635099010,1.8741610061257747,-0.6360961577335222,-175.67966447211316,-0.11474609375,0.22265625,1.17822265625,8.60595703125,-0.06103515625,-25.87890625,0.004929831717163324,-0.01655174046754837,0.9991369843482971,0.03777819499373436
0,1650775105,654485850,1.6174583780111889,-0.6025041668174888,-175.27059078234274,0.06787109375,0.26220703125,0.8623046875,3.60107421875,6.7138671875,-20.1416015625,0.0046704551205039024,-0.014319219626486301,0.9990321397781372,0.04132968932390213
0,1650775105,677182647,1.66984230040719,-0.5599595054468611,-174.88228086764917,0.25439453125,0.10888671875,0.97900390625,-11.23046875,8.7890625,-12.87841796875,0.0042306059040129185,-0.014775043353438377,0.9988817572593689,0.044711582362651825
0,1650775105,710846541,1.5368991782369446,-0.47710477514211075,-174.4423347228303,-0.00146484375,0.17529296875,1.24267578125,10.92529296875,-2.86865234375,-6.4697265625,0.00350804440677166,-0.013597517274320126,0.998723030090332,0.048531804233789444
0,1650775105,750249700,0.9220071293383155,-0.2383075412975663,-174.14955183386854,-0.4560546875,0.22265625,0.58642578125,3.47900390625,-3.90625,-4.45556640625,0.0016662419075146317,-0.008141566999256611,0.9986616969108582,0.05104762315750122
0,1650775105,769940832,0.8162050978564379,-0.4170078883062991,-174.07754797963827,0.0634765625,0.08349609375,0.77294921875,7.26318359375,-0.6103515625,-3.173828125,0.00326616526581347,-0.007301104720681906,0.998631477355957,0.05168434977531433
0,1650775105,811918899,0.5608203760865472,-0.25882964507166295,-173.87917196538442,-0.05126953125,0.16748046875,1.16845703125,-13.85498046875,5.37109375,-4.2724609375,0.001994176534935832,-0.005007657688111067,0.998558759689331,0.05339915677905083
0,1650775105,830537986,0.42203408044220864,-0.23400057341734434,-173.7914176949281,0.07568359375,0.18701171875,0.30322265625,2.0751953125,-3.7841796875,-5.79833984375,0.001839584787376225,-0.0037881049793213606,0.9985233545303345,0.054160647094249725
0,1650775105,878834108,0.3127648475024769,-0.1263055123183154,-173.62502062636824,0.22705078125,-0.1015625,0.95849609375,-5.06591796875,3.72314453125,-2.13623046875,0.0009487507632002234,-0.002786447759717703,0.9984484314918518,0.05560624226927757
0,1650775105,894715053,0.3345331139545571,-0.10544420027249901,-173.58723601987975,0.2578125,-0.23486328125,1.1953125,-9.765625,5.92041015625,-0.67138671875,0.0007554428302682936,-0.0029662440065294504,0.9984297156333923,0.0559350959956646
0,1650775105,922227424,0.8370319988222463,-0.1835219402944461,-173.41736921522153,-0.60595703125,0.06103515625,1.384765625,-15.5029296875,-11.3525390625,-12.02392578125,0.0011794798774644732,-0.007384304888546467,0.9983220100402832,0.05742281302809715
0,1650775105,954573192,1.12209218498855,0.014180053016221657,-173.36894317400615,-0.07080078125,0.240234375,1.767578125,0.0,12.63427734375,3.96728515625,-0.0006898446008563042,-0.00976839754730463,0.9982784390449524,0.05783063918352127
0,1650775105,970346199,1.0892908418297984,-0.09410548594068283,-173.38372370337004,-0.0302734375,-0.27197265625,1.16357421875,-20.8740234375,-8.11767578125,-3.11279296875,0.00027128486544825137,-0.009537257254123688,0.9982877373695374,0.05771099403500557
0,1650775106,18051307,0.724208853038713,-0.10566765551408552,-173.2866120737508,-0.0361328125,0.16455078125,1.0537109375,7.32421875,-3.7841796875,-1.220703125,0.0005504837608896196,-0.006363017484545708,0.9982637166976929,0.0585564523935318
0,1650775106,34800293,0.6440988982849557,-0.04359252177905601,-173.21963523874965,-0.46484375,0.15283203125,0.90625,-0.48828125,-10.3759765625,-4.2724609375,4.7357512812595814e-05,-0.005633451975882053,0.9982340335845947,0.05913649871945381
0,1650775106,50326866,0.5537280784071352,-0.11724881488101073,-173.17211078250472,-0.14501953125,0.13232421875,1.044921875,-4.45556640625,9.521484375,-4.2724609375,0.0007336087292060256,-0.004884521011263132,0.998212993144989,0.059553541243076324
0,1650775106,94022873,0.8708018414609646,-0.13764283926795642,-173.0668848881515,-0.2744140625,-0.42919921875,1.51123046875,-26.2451171875,-12.0849609375,-1.708984375,0.000739441195037216,-0.007657823618501425,0.9981402158737183,0.060473211109638214
0,1650775106,115294598,1.620442423626544,-0.026337914803343316,-173.01311763900515,-0.32421875,-0.37841796875,1.18359375,-29.9072265625,-4.82177734375,-8.9111328125,-0.0006322523113340139,-0.014128284528851509,0.9980417490005493,0.060931380838155746
0,1650775106,156053932,1.5170611072360543,0.04095356413439853,-173.08543568193724,-0.13671875,-0.21484375,0.94189453125,0.8544921875,-8.30078125,-2.25830078125,-0.001155042671598494,-0.013192824088037014,0.9980928301811218,0.06029433757066727
0,1650775106,170631694,1.3630345784801545,-0.2112433569384271,-173.1891725950514,0.21044921875,-1.02490234375,-0.083984375,-5.37109375,-0.9765625,5.0048828125,0.0011335230665281415,-0.011982911266386509,0.9981606602668762,0.05941825732588768
0,1650775106,196497518,1.6495371085000943,-0.09456804449396607,-173.16956995213346,0.04345703125,0.02099609375,1.38134765625,-2.38037109375,11.41357421875,0.1220703125,-3.378534529474564e-05,-0.014418017119169235,0.9981196522712708,0.05957707762718201
0,1650775106,236566093,1.2724358543996377,-0.01750504613359539,-173.1732992354203,0.076171875,-0.0078125,0.73876953125,-2.5634765625,13.61083984375,-0.732421875,-0.000508632801938802,-0.011093264445662498,0.9981644153594971,0.05953698605298996
0,1650775106,255738658,1.1541356973145473,0.04638990446089274,-173.1725888957466,0.00830078125,0.13818359375,0.98828125,12.20703125,-14.5263671875,1.5869140625,-0.0010038026375696063,-0.010029586963355541,0.9981751441955566,0.0595381073653698
0,1650775106,277139888,0.925135035813064,-0.008856068134305494,-173.1746652732543,0.34912109375,0.13671875,0.50244140625,0.79345703125,8.1787109375,-3.72314453125,-0.00040343168075196445,-0.008063522167503834,0.99819415807724,0.059525713324546814
0,1650775106,314863413,0.6326827173349554,0.17117218454269614,-173.207395539757,0.07568359375,0.2412109375,1.52734375,12.87841796875,-12.63427734375,2.8076171875,-0.0018181969644501805,-0.005422974471002817,0.9982278943061829,0.059232816100120544
0,1650775106,335380025,0.2527728947838748,-0.0722683973285868,-173.23608233427106,0.1865234375,0.06005859375,1.17822265625,-1.40380859375,6.7138671875,2.197265625,0.0004994327900931239,-0.0022392193786799908,0.998255729675293,0.058993302285671234
0,1650775106,355007156,0.2158454903764141,0.21568952994362775,-173.2091987096979,-0.265625,0.06787109375,1.27978515625,-15.07568359375,12.39013671875,-1.0986328125,-0.0019904961809515953,-0.0017688182415440679,0.9982413053512573,0.05922244116663933
0,1650775106,394842479,-0.3193076351188202,0.18414957064614682,-173.22743531478181,-0.40234375,0.2001953125,0.88037109375,-3.2958984375,0.48828125,0.8544921875,-0.0014396056067198515,0.0028765336610376835,0.9982485771179199,0.05907149985432625
0,1650775106,414596427,-0.5183880393112545,-0.039965164391356944,-173.28669403602083,0.2021484375,0.14208984375,0.72607421875,7.6904296875,2.38037109375,2.9296875,0.0006130321999080479,0.004495592322200537,0.9982742667198181,0.058549005538225174
0,1650775106,455225520,-0.6663694237648699,0.027105842509980306,-173.31734792501587,0.3203125,0.06591796875,1.4912109375,-4.57763671875,1.52587890625,5.2490234375,0.00010279308480676264,0.005819038487970829,0.9982830286026001,0.058284491300582886
0,1650775106,474443302,-0.8085472284972371,0.2491078046030754,-173.33103562411256,-0.00732421875,0.33935546875,0.87548828125,5.9814453125,19.10400390625,-1.89208984375,-0.0017597381956875324,0.007170324679464102,0.9982788562774658,0.0581786073744297
0,1650775106,494590566,-1.1183460396722096,-0.21345544443522532,-173.37973487289474,0.201171875,0.13818359375,0.40234375,12.5732421875,-11.29150390625,4.33349609375,0.002423057332634926,0.009635405614972115,0.9982833862304688,0.057719629257917404
0,1650775106,532545965,-1.144439923622597,-0.23581545606543722,-173.36866996643934,-0.4521484375,0.23876953125,0.73095703125,0.30517578125,-16.54052734375,-3.35693359375,0.0026319429744035006,0.009851201437413692,0.9982753992080688,0.05781342461705208
0,1650775106,554839845,-0.7465130492168012,-0.2209139843284528,-173.37137472135066,-0.07861328125,-0.2509765625,0.73486328125,-22.52197265625,4.69970703125,-2.01416015625,0.0023011970333755016,0.006392147857695818,0.9983052015304565,0.05779959261417389
0,1650775106,574573473,-0.6070657193268524,-0.1329736178976726,-173.36698973990352,-0.28125,0.24462890625,0.947265625,2.685546875,-6.40869140625,0.1220703125,0.0014649294316768646,0.005221616011112928,0.998310923576355,0.0578446127474308
0,1650775106,614800705,-0.6004169570566681,-0.13073482329400257,-173.34666309693355,-0.52783203125,-0.01611328125,0.87158203125,-12.14599609375,-21.728515625,2.5634765625,0.0014429851435124874,0.00516456738114357,0.9983009696006775,0.058021895587444305
0,1650775106,634641662,-0.7444425414029353,-0.23916080801571543,-173.3948022702038,-0.2177734375,-0.1328125,0.78271484375,-10.55908203125,1.89208984375,1.5869140625,0.0024578142911195755,0.006365405395627022,0.998316764831543,0.057594384998083115
0,1650775106,674584859,-0.5997686226940457,-0.23869827614285863,-173.44489487757667,0.24365234375,-0.1689453125,1.0107421875,-10.55908203125,-2.01416015625,3.60107421875,0.002378837438300252,0.005106280092149973,0.998349130153656,0.05716116353869438
0,1650775106,694972318,-0.6856265017994861,-0.25676938254155207,-173.46292657698552,0.3212890625,-0.03857421875,1.36328125,-18.12744140625,7.75146484375,3.72314453125,0.0025781835429370403,0.005845681298524141,0.9983537197113037,0.05700124427676201
0,1650775106,734980796,-0.6727967384955577,-0.07745492548721979,-173.44347419822932,0.08056640625,0.0673828125,1.00439453125,12.63427734375,-3.96728515625,0.06103515625,0.001010551699437201,0.005822963546961546,0.9983464479446411,0.05718036741018295
0,1650775106,754903162,-0.8062203751460841,-0.037843320101956866,-173.44847389670176,-0.08740234375,0.10205078125,0.81396484375,-3.173828125,-4.08935546875,0.8544921875,0.0007317204726859927,0.0070051755756139755,0.99834144115448,0.05713798850774765
0,1650775106,794998008,-1.1329620041658022,0.013682666501267296,-173.49614861710845,0.36279296875,0.009765625,1.6171875,6.2255859375,27.7099609375,4.0283203125,0.0004416357260197401,0.009877650067210197,0.9983409643173218,0.056724708527326584
0,1650775106,811228781,-1.0642453919170078,-0.04436774824985246,-173.48304831428038,-0.091796875,-0.34228515625,0.6376953125,-21.30126953125,-8.11767578125,-0.18310546875,0.0009144260548055172,0.009250137954950333,0.998340368270874,0.05683448165655136
0,1650775106,855450842,-0.8129007804020326,0.18412627863386,-173.5079375236159,0.23779296875,0.03466796875,0.93798828125,8.7890625,-4.94384765625,-0.9765625,-0.00120250741019845,0.0071734278462827206,0.9983685612678528,0.05663352832198143
0,1650775106,875225590,-0.9003434768383275,0.26198276454940234,-173.43093397091317,0.224609375,0.05078125,1.2216796875,3.5400390625,13.3056640625,-4.57763671875,-0.001832246663980186,0.007974954321980476,0.9983229637145996,0.0573105551302433
0,1650775106,911788781,-0.4568138305827367,0.8781556073195411,-172.0014026983862,-0.0595703125,-0.56494140625,1.05029296875,-31.1279296875,16.845703125,-45.166015625,-0.007366533391177654,0.004511083476245403,0.9975255727767944,0.06977218389511108
0,1650775106,954537673,-0.1543475209664639,1.844567930886225,-169.7398997434383,0.22998046875,-0.14697265625,1.21142578125,17.2119140625,38.87939453125,-61.09619140625,-0.01591128297150135,0.0027806339785456657,0.9958624243736267,0.08942661434412003
0,1650775106,970134679,-0.13045491894016426,2.464802254932862,-167.66542102834367,-0.654296875,-0.1962890625,1.2685546875,9.46044921875,10.009765625,-80.62744140625,-0.021261032670736313,0.0034422017633914948,0.9939792156219482,0.10743115842342377
0,1650775107,16312473,-0.6430247976771183,3.147336868833301,-164.0026911047893,-0.53955078125,0.2451171875,1.142578125,14.83154296875,36.31591796875,-107.84912109375,-0.02641410566866398,0.009376040659844875,0.9898608922958374,0.139247864484787
0,1650775107,50392277,-0.1941615073914748,4.05125114722537,-158.77282891768888,-0.72314453125,-0.20751953125,1.21142578125,8.4228515625,17.88330078125,-119.07958984375,-0.03442981839179993,0.00817460659891367,0.9822651147842407,0.18412788212299347
0,1650775107,76342678,-0.3200297141801375,4.619643268254553,-156.49030264047568,-0.60009765625,0.134765625,0.96728515625,2.0751953125,13.427734375,-122.98583984375,-0.03888919949531555,0.010942686349153519,0.9782060384750366,0.20366844534873962
0,1650775107,114683137,-0.48810788972988395,5.1778417588343135,-151.03389673898428,-0.04638671875,-0.02392578125,1.1220703125,27.587890625,27.16064453125,-120.2392578125,-0.04266980662941933,0.015416545793414116,0.9671764969825745,0.25002244114875793
0,1650775107,133252400,-0.4948858386249167,5.83550274476827,-148.5830882610003,-1.1015625,0.09423828125,1.7041015625,4.7607421875,29.4189453125,-129.94384765625,-0.04783305153250694,0.017933305352926254,0.9613354206085205,0.2706007659435272
0,1650775107,174856255,-0.2545207828811634,6.40501032106628,-142.77562429654859,-1.02099609375,-0.19140625,0.931640625,3.0517578125,-2.50244140625,-132.4462890625,-0.052235525101423264,0.019931595772504807,0.9461786150932312,0.3187793791294098
0,1650775107,214588250,-0.21520669426624603,6.15540447294275,-138.2931350688093,-0.7265625,-0.41357421875,1.04443359375,-15.31982421875,-14.6484375,-117.0654296875,-0.04950551688671112,0.020865008234977722,0.9331087470054626,0.35555875301361084
0,1650775107,231436565,-0.3116591305893017,6.445152196592091,-135.99462614893827,-0.36669921875,0.09765625,0.88330078125,19.4091796875,17.822265625,-77.0263671875,-0.05110304430127144,0.023578504100441933,0.9256393909454346,0.37419798970222473
0,1650775107,275821956,-0.1290119347562933,6.44244786856759,-133.5263187263007,-0.48876953125,0.0087890625,0.8486328125,0.91552734375,15.31982421875,-47.54638671875,-0.05118969827890396,0.023202205076813698,0.9174044728279114,0.3939674496650696
0,1650775107,315439357,-0.12928298120855172,5.6908696471118425,-132.40276626821196,0.08447265625,-0.01708984375,1.099609375,-6.53076171875,7.080078125,-15.7470703125,-0.044965993613004684,0.021062608808279037,0.9138181805610657,0.40307679772377014
0,1650775107,334942486,-0.14096457904083048,5.6131446556780356,-132.14468074023387,-0.14599609375,0.09521484375,0.74853515625,-5.43212890625,-11.41357421875,-14.5263671875,-0.04425790160894394,0.0209821630269289,0.9129367470741272,0.4051511287689209
0,1650775107,375460474,-0.0940972416889112,5.885306776648711,-131.1616799148856,-0.18359375,0.00537109375,1.10107421875,-13.3056640625,37.53662109375,-36.9873046875,-0.046405091881752014,0.021969638764858246,0.9093271493911743,0.41290217638015747
0,1650775107,417638831,-0.34701395064143314,6.5152265223818375,-128.4744102878358,0.0361328125,0.19775390625,1.0166015625,13.18359375,15.07568359375,-75.439453125,-0.049862734973430634,0.02742171473801136,0.8990670442581177,0.4340970814228058
0,1650775107,454709964,-0.21302328822787658,7.32358666772884,-124.8714581798974,-0.5654296875,0.09130859375,1.20654296875,-2.38037109375,7.99560546875,-103.1494140625,-0.055758897215127945,0.031198514625430107,0.884626030921936,0.4619031250476837
0,1650775107,496668320,-0.20808556838605982,8.222962071974024,-119.92459805086729,-0.96435546875,0.11572265625,0.7119140625,17.63916015625,5.67626953125,-116.943359375,-0.0611613504588604,0.037457410246133804,0.8634017109870911,0.49939340353012085
0,1650775107,514892715,-0.18123358679865384,8.11350572920363,-117.67690573842114,-0.4765625,0.111328125,0.7021484375,17.9443359375,-7.32421875,-119.0185546875,-0.05972052738070488,0.03795689344406128,0.8535087704658508,0.5162515044212341
0,1650775107,557156321,-0.02990553638375787,8.604624505057874,-112.14696602032538,-1.03173828125,0.046875,0.8740234375,15.93017578125,-31.67724609375,-124.08447265625,-0.06210204213857651,0.04208621382713318,0.8274049758911133,0.5565727353096008
0,1650775107,598497326,0.04602575999560653,8.703244752710042,-107.84517627726795,-0.8359375,0.04248046875,0.966796875,1.77001953125,-11.8408203125,-97.2900390625,-0.06156141683459282,0.04435867443680763,0.805910050868988,0.5871555209159851
0,1650775107,614431007,0.4499630441235081,8.674882392181564,-105.67833291402725,-0.6259765625,-0.4130859375,0.896484375,-9.033203125,1.46484375,-74.64599609375,-0.06263772398233414,0.042564135044813156,0.794833779335022,0.6020832061767578
0,1650775107,652523336,0.8868278664921946,8.299504586907771,-103.70414186651594,-0.25,-0.01318359375,0.79150390625,18.4326171875,-22.5830078125,-31.3720703125,-0.0616740845143795,0.038627076894044876,0.7846792936325073,0.6156158447265625
0,1650775107,670975413,0.8550198356100038,7.823273062123217,-103.15154541171606,-0.3837890625,0.119140625,1.3134765625,6.89697265625,-13.85498046875,-14.09912109375,-0.058068808168172836,0.0365629680454731,0.7819002866744995,0.6196154356002808
0,1650775107,716845972,0.9697615708592232,7.552876118166168,-102.7137849274316,-0.36962890625,-0.01416015625,0.84326171875,-6.103515625,-23.8037109375,-6.53076171875,-0.05671413242816925,0.034532759338617325,0.7796750664710999,0.6226538419723511
0,1650775107,753778160,0.8815715023173408,7.085434193069774,-102.56380763363646,-0.1513671875,0.0732421875,1.15966796875,-12.75634765625,-4.45556640625,-4.08935546875,-0.05301400646567345,0.03265857696533203,0.7790161967277527,0.6239044070243835
0,1650775107,775075965,0.7909788613740536,6.777110489312112,-102.49918721389898,0.0380859375,0.0693359375,1.162109375,3.41796875,-7.38525390625,-2.99072265625,-0.050408199429512024,0.03162214532494545,0.778753399848938,0.6245015263557434
0,1650775107,796451787,0.7048995347291167,6.740126722503786,-102.40467105616433,0.2412109375,0.033203125,0.9765625,6.53076171875,11.16943359375,-3.96728515625,-0.049661457538604736,0.032046347856521606,0.7782276272773743,0.6251949667930603
0,1650775107,834562419,0.712252927061723,6.659177028008087,-102.32585750333156,-0.24169921875,0.025390625,1.0908203125,2.5634765625,0.0,-2.685546875,-0.049130428582429886,0.031588148325681686,0.7778288722038269,0.625756025314331
0,1650775107,874587793,0.44032778163873576,6.229145756543145,-102.28758112322281,-0.35107421875,0.01416015625,0.75732421875,-3.96728515625,-10.68115234375,-4.39453125,-0.044717010110616684,0.03109852224588394,0.7776978611946106,0.6262742877006531
0,1650775107,914980051,0.0013871625827427448,5.820500661143161,-102.19125496535811,-0.33056640625,0.125,1.30859375,-30.21240234375,6.89697265625,-4.08935546875,-0.03951781988143921,0.031876303255558014,0.7771919965744019,0.6272119879722595
0,1650775107,954603052,-0.09246407942533769,5.705864900547782,-102.13306858381878,-0.2548828125,0.142578125,0.54345703125,-2.8076171875,-3.84521484375,-3.41796875,-0.03821038454771042,0.031904786825180054,0.7768866419792175,0.6276696920394897
0,1650775107,970233115,-0.2018846770944006,5.445959980929518,-102.09161616574598,0.22119140625,0.08642578125,0.9208984375,-6.9580078125,7.99560546875,-1.15966796875,-0.03583739325404167,0.03123609349131584,0.7767170071601868,0.6280530691146851
0,1650775108,15749558,0.45781573395661296,5.17835060792748,-102.11582918635366,0.123046875,-0.4677734375,0.87548828125,-14.09912109375,-13.61083984375,1.89208984375,-0.037643976509571075,0.0252891406416893,0.7770949006080627,0.6277474761009216
0,1650775108,52983860,0.4373092915928397,4.991573962431604,-102.25113523381162,0.16650390625,0.03955078125,0.60595703125,5.55419921875,-7.01904296875,2.8076171875,-0.0362941212952137,0.02436169981956482,0.7778834700584412,0.6268865466117859
0,1650775108,69684750,0.3853766152493089,4.929722330628906,-102.27343580145171,-0.04638671875,-0.02392578125,0.8291015625,0.54931640625,-12.6953125,0.18310546875,-0.03559499606490135,0.024368802085518837,0.7780113816261292,0.6267674565315247
0,1650775108,115091112,1.1097508869319832,4.599787054563679,-102.25862112114196,0.05078125,-0.63427734375,1.3271484375,-3.84521484375,-12.8173828125,0.6103515625,-0.037314869463443756,0.01764921471476555,0.7781445384025574,0.6267273426055908
0,1650775108,155503498,1.3647482089098872,4.674673248623699,-102.44208683243767,0.0205078125,-0.60693359375,1.59521484375,-22.15576171875,1.28173828125,11.962890625,-0.039243653416633606,0.0162647794932127,0.779168426990509,0.6253734230995178
0,1650775108,174859458,1.389149913493404,4.149372791068127,-102.93560215091694,0.2685546875,-0.01904296875,1.45458984375,10.68115234375,-11.962890625,27.587890625,-0.03586408123373985,0.013074089772999287,0.7819613814353943,0.622157096862793
0,1650775108,217273370,0.604109634798412,3.171434203111929,-104.78344152897219,-0.16943359375,-0.0869140625,0.251953125,-0.54931640625,-29.72412109375,59.75341796875,-0.025137800723314285,0.012712396681308746,0.7919761538505554,0.6099019646644592
0,1650775108,254504857,0.9560794212912183,2.1247386621021516,-108.64414448561936,-0.08544921875,-0.1484375,2.03515625,-2.8076171875,-7.50732421875,84.16748046875,-0.019925501197576523,0.0040369899943470955,0.8122305870056152,0.5829821228981018
0,1650775108,294657720,0.17401883930207085,0.9496756920575082,-112.57009623940768,0.37939453125,0.2783203125,0.787109375,12.3291015625,-36.7431640625,108.45947265625,-0.007736407220363617,0.003336863359436393,0.8317867517471313,0.5550313591957092
0,1650775108,334829432,-0.25792384459384293,0.2122633496414333,-117.88969345182372,0.61865234375,-0.01171875,1.46337890625,5.9814453125,3.173828125,119.81201171875,-0.00042574055260047317,0.0028837532736361027,0.8566653728485107,0.5158644318580627
0,1650775108,374488882,-0.6242535168472192,0.08003158100107403,-122.22465059349074,0.22705078125,0.1923828125,0.708984375,7.568359375,2.8076171875,78.06396484375,0.0020202137529850006,0.0051071480847895145,0.8755534887313843,0.48309001326560974
0,1650775108,402497258,-0.7721510180400903,-0.0018685845101841098,-123.521375667796,0.26025390625,0.23583984375,0.75927734375,5.43212890625,4.45556640625,61.70654296875,0.0032025983091443777,0.005928530357778072,0.8809590935707092,0.4731445014476776
0,1650775108,434466190,-1.1693046936874996,0.4477707668433456,-125.38034825419837,0.12548828125,0.15869140625,1.13916015625,0.3662109375,15.2587890625,31.79931640625,0.0012097390135750175,0.010859204456210136,0.8884672522544861,0.4588099420070648
0,1650775108,454490669,-1.3094648712112156,0.33724910132541563,-125.87645221437307,0.08154296875,0.1953125,0.95166015625,4.150390625,-2.197265625,21.97265625,0.0025780340656638145,0.011514732614159584,0.8904392123222351,0.4549492597579956
0,1650775108,495052689,-1.6726791767902727,0.4705364810380857,-126.59517936035517,0.24462890625,0.27099609375,1.5224609375,0.06103515625,6.103515625,15.2587890625,0.0028910301625728607,0.014884533360600471,0.8932228684425354,0.44935864210128784
0,1650775108,535542932,-1.8759462468200867,0.7265640943636038,-127.02281750428968,0.328125,0.232421875,0.45068359375,19.22607421875,22.3388671875,11.53564453125,0.0016271224012598395,0.01747879758477211,0.8948389887809753,0.44604384899139404
0,1650775108,578967319,-2.116223550641261,1.1026109913717927,-127.53446697501533,-0.0859375,0.35498046875,1.01708984375,12.20703125,-0.8544921875,8.30078125,-0.00046731153270229697,0.020816132426261902,0.8967326879501343,0.4420825242996216
0,1650775108,594780584,-2.1150511059815464,1.034493194614138,-127.64928245496324,0.05908203125,0.18603515625,1.33154296875,-8.11767578125,-1.953125,8.7890625,4.07282350352034e-05,0.020544402301311493,0.8971852660179138,0.4411764144897461
0,1650775108,614686213,-2.2067948472433923,1.1469501248642824,-127.83298722287991,-0.05419921875,0.19482421875,0.76953125,8.97216796875,-8.85009765625,5.0048828125,-0.0005214469856582582,0.02169453166425228,0.8978579044342041,0.43975019454956055
0,1650775108,656143283,-2.496430513101664,1.0197563144278952,-128.34454107095718,0.189453125,0.36279296875,0.74853515625,21.484375,7.2021484375,18.9208984375,0.0014819768257439137,0.023482993245124817,0.8997743725776672,0.4357207715511322
0,1650775108,670432018,-2.6796364637655046,0.724583392865153,-129.06594565109393,0.27001953125,0.1806640625,1.01806640625,-3.60107421875,-24.658203125,35.70556640625,0.0043467311188578606,0.023827867582440376,0.9025044441223145,0.4299989640712738
0,1650775108,715182757,-2.7428810272720607,0.23678147426574445,-130.69071105085655,-0.20263671875,0.23681640625,0.76611328125,-9.765625,-15.31982421875,49.74365234375,0.008106538094580173,0.022613683715462685,0.908555805683136,0.41707247495651245
0,1650775108,736035629,-2.67259710005216,-0.19724679188497682,-132.1031941712152,0.3642578125,0.14306640625,1.53857421875,-5.06591796875,-6.40869140625,58.04443359375,0.011038866825401783,0.02061450481414795,0.9136778116226196,0.4057661294937134
0,1650775108,750075018,-2.693842616908896,-0.567024535730446,-133.19673477809093,0.1533203125,-0.01611328125,1.2431640625,-15.380859375,-5.859375,59.87548828125,0.013875802047550678,0.01960749737918377,0.9175247550010681,0.396952748298645
0,1650775108,791240788,-2.6833642529484503,-1.2027777432624396,-136.18914993650023,0.50927734375,0.10205078125,0.9482421875,4.82177734375,-12.8173828125,69.7021484375,0.01847049780189991,0.017808180302381516,0.9275872111320496,0.3727249205112457
0,1650775108,810349257,-2.8603003033976306,-1.4226625568211888,-137.4407274603917,0.11328125,0.19287109375,0.52734375,13.7939453125,-3.2958984375,65.97900390625,0.02062186226248741,0.018750635907053947,0.9315707087516785,0.3624904453754425
0,1650775108,858215902,-2.932673414729909,-1.988077035537363,-140.38302269067145,0.22216796875,0.2255859375,0.8642578125,-5.92041015625,7.568359375,63.4765625,0.02498696930706501,0.018194817006587982,0.9405314326286316,0.3382977545261383
0,1650775108,874463795,-2.9394026451662523,-2.096952812228305,-141.4209792180816,0.34033203125,0.11376953125,1.20849609375,-5.37109375,2.685546875,50.72021484375,0.02573670633137226,0.018161684274673462,0.9435480237007141,0.3297346532344818
0,1650775108,911014314,-3.111776342693276,-1.9242990769453112,-142.85537358529766,-0.013671875,0.11083984375,1.05126953125,-10.009765625,4.82177734375,23.4375,0.024558275938034058,0.020388124510645866,0.9475845694541931,0.31790679693222046
0,1650775108,930282657,-3.0246702998778683,-1.9907070852546411,-143.19505255310074,0.14501953125,0.08740234375,1.2080078125,-5.615234375,2.3193359375,17.08984375,0.02480774000287056,0.019556710496544838,0.9485334157943726,0.3150974214076996
0,1650775108,973000509,-3.0013511802777986,-1.7442174042182226,-143.6537407370021,0.0615234375,0.07958984375,1.00048828125,-0.18310546875,-2.50244140625,12.63427734375,0.022623436525464058,0.020134007558226585,0.9498068690299988,0.31136763095855713
0,1650775108,991484203,-3.0254867209270966,-1.8458782599898098,-143.9267024169925,0.14990234375,0.11669921875,0.896484375,-3.173828125,0.67138671875,10.80322265625,0.02348356693983078,0.0201131422072649,0.9505355954170227,0.3090728521347046
0,1650775109,36118620,-2.7597449777762337,-1.7908173303259867,-144.42683618877751,0.6572265625,0.00732421875,1.11328125,3.7841796875,27.16064453125,17.63916015625,0.02223108895123005,0.018154848366975784,0.9519236087799072,0.30498817563056946
0,1650775109,51649257,-2.6952692726717826,-1.7140814356613627,-144.99687011652844,0.1904296875,-0.33203125,1.0166015625,-1.46484375,-14.22119140625,29.96826171875,0.0213332399725914,0.017930293455719948,0.9534441232681274,0.3002795875072479
0,1650775109,92555057,-2.153134533246245,-2.1182128432370275,-146.78289628259506,0.2861328125,-0.5009765625,1.1435546875,-22.3388671875,13.7939453125,43.3349609375,0.023079004138708115,0.012719271704554558,0.9580463767051697,0.28539931774139404
0,1650775109,114666215,-2.1671161439206728,-2.1622914690457047,-147.48128312522886,-0.0703125,0.01318359375,1.62158203125,14.5263671875,-7.9345703125,38.2080078125,0.02340427041053772,0.012869003228843212,0.9597615003585815,0.27954337000846863
0,1650775109,157189345,-2.284202234880793,-2.7287002738946446,-149.44279051145148,0.3701171875,0.07470703125,0.76416015625,12.451171875,-3.47900390625,55.5419921875,0.028214916586875916,0.012949136085808277,0.9643158912658691,0.2629280686378479
0,1650775109,173334997,-2.303443304659542,-2.7311106903414246,-150.84964555593402,0.287109375,0.16259765625,0.54736328125,16.54052734375,5.859375,53.955078125,0.028116319328546524,0.013451696373522282,0.9674685001373291,0.2510643005371094
0,1650775109,216598679,-2.288736840159447,-2.971788414002691,-152.8966669105652,0.18505859375,0.07958984375,1.18798828125,-2.50244140625,-1.46484375,53.28369140625,0.029882099479436874,0.013334151357412338,0.9717596769332886,0.2336931824684143
0,1650775109,241323658,-1.9842596001215607,-3.083888893755525,-154.2906128975164,0.5205078125,-0.12060546875,1.2216796875,-11.3525390625,13.3056640625,55.72509765625,0.03008127026259899,0.010889247991144657,0.974541962146759,0.22191111743450165
0,1650775109,270085962,-1.8781822799996197,-3.537507796632283,-156.46865094080675,0.14453125,-0.01904296875,1.23046875,4.08935546875,1.220703125,61.34033203125,0.03355350345373154,0.009744546376168728,0.9784950017929077,0.20328979194164276
0,1650775109,289926823,-1.9927952021499609,-3.9410836110076493,-158.17723642206377,-0.22900390625,0.0634765625,0.67529296875,2.50244140625,-23.37646484375,73.1201171875,0.03704863041639328,0.010557165369391441,0.9813053607940674,0.18856284022331238
0,1650775109,314779836,-2.010349428647128,-4.372700767020503,-159.7085101924673,0.3974609375,0.068359375,0.79736328125,5.37109375,-8.6669921875,80.9326171875,0.0406353659927845,0.010536670684814453,0.9836127758026123,0.17533864080905914
0,1650775109,352558081,-2.263185315917841,-5.294025411050346,-164.01010869022795,0.5859375,0.13134765625,0.88525390625,14.22119140625,-2.25830078125,106.4453125,0.0484686903655529,0.013113820925354958,0.9891576766967773,0.1380070447921753
0,1650775109,375264638,-2.1446185680117082,-5.433787303168086,-166.04810053477635,0.5986328125,0.0439453125,0.98095703125,1.03759765625,11.53564453125,108.21533203125,0.04931217059493065,0.01279884297400713,0.9914156794548035,0.12041453272104263
0,1650775109,414804791,-2.0367609163939213,-6.469375035596719,-171.2145922267574,0.62353515625,0.1376953125,0.95068359375,10.68115234375,-15.5029296875,117.49267578125,0.05761043727397919,0.013371620327234268,0.9953935742378235,0.07545799762010574
0,1650775109,454435440,-2.2192960144152196,-7.234533807556567,-175.58622748426737,0.8876953125,0.24560546875,1.1337890625,30.3955078125,-13.7939453125,125.06103515625,0.06377691775560379,0.01688382402062416,0.9971275925636292,0.0372031070291996
0,1650775109,472250359,-1.9706839588159255,-7.550565806679411,-178.6674897434002,0.31787109375,0.2255859375,1.103515625,4.2724609375,5.67626953125,120.78857421875,0.06602879613637924,0.01639261655509472,0.9976280927658081,0.010468943044543266
0,1650775109,495112533,-1.4982652804138252,-7.7803948420611695,179.0110619190302,0.49462890625,-0.53564453125,1.03125,-10.1318359375,-1.953125,124.32861328125,0.06772369891405106,0.013629297725856304,0.9975658655166626,-0.00949640478938818
0,1650775109,534669486,-1.0538296735978558,-8.168883195446801,173.8454444912629,0.2529296875,0.03076171875,0.8203125,9.27734375,-15.93017578125,118.896484375,0.07062844932079315,0.012983163818717003,0.995944619178772,-0.05419822409749031
0,1650775109,558582488,-0.763089011197923,-8.558129699830305,171.54733172236374,0.27978515625,-0.07177734375,0.5556640625,4.638671875,-12.51220703125,122.4365234375,0.07392042130231857,0.012121236883103848,0.9944421648979187,-0.07398500293493271
0,1650775109,594987182,0.5827198301954593,-8.781091833775262,166.20079624386116,0.7392578125,-0.3251953125,1.55126953125,1.77001953125,-7.9345703125,117.919921875,0.07660821080207825,0.00416284566745162,0.9898788332939148,-0.11938944458961487
0,1650775109,614736778,0.6546466847150124,-8.818364176076022,164.19232447690555,0.6015625,0.12744140625,1.166015625,11.65771484375,6.591796875,99.7314453125,0.07693048566579819,0.004929680842906237,0.9876131415367126,-0.1366666853427887
0,1650775109,659323003,0.7769248400222533,-8.446788224848987,160.7156079252073,0.30078125,0.15185546875,0.806640625,14.22119140625,-3.47900390625,66.95556640625,0.07373585551977158,0.0056689768098294735,0.9832568764686584,-0.16654393076896667
0,1650775109,674478019,0.9109315507123167,-8.305868615666931,159.62522286572815,0.39111328125,0.0361328125,1.18896484375,7.9345703125,16.11328125,53.1005859375,0.07267723977565765,0.005004771053791046,0.981721043586731,-0.17583157122135162
0,1650775109,715035047,1.1239280117714023,-7.8047820324927,158.40566526866567,-0.267578125,0.2080078125,1.4736328125,7.2021484375,3.41796875,23.4375,0.06868196278810501,0.0031366851180791855,0.9800968766212463,-0.18623369932174683
0,1650775109,737290815,1.056135396051264,-7.424245726848256,157.91972462997595,0.134765625,0.130859375,1.00634765625,3.7841796875,27.77099609375,14.5263671875,0.06530376523733139,0.0033707793336361647,0.9795067310333252,-0.19050106406211853
0,1650775109,774526494,0.6787054390970004,-7.369126100246254,157.31096352963107,0.13134765625,0.09033203125,0.52685546875,-3.60107421875,10.6201171875,13.3056640625,0.06416941434144974,0.00684584304690361,0.9784932136535645,-0.19592474400997162
0,1650775109,795578185,0.6465429320690567,-6.971148479669359,156.95903120245697,0.0498046875,0.07470703125,1.19140625,-0.244140625,-4.39453125,16.357421875,0.06069616973400116,0.0066239009611308575,0.9780937433242798,-0.19900956749916077
0,1650775109,830973683,0.34578718463347535,-7.022509794680562,156.07722645985166,0.1513671875,0.13916015625,0.9521484375,1.46484375,-8.056640625,34.7900390625,0.06053878366947174,0.009746536612510681,0.9764848947525024,-0.20668159425258636
