,s,ns,phi_r,phi_p,phi_y,ax,ay,az,wx,wy,wz,q.x,q.y,q.z,q.w
0,1650776486,941418311,-5.924374604927538,1.6657829268843811,27.379463863514555,-0.048828125,0.14990234375,1.01513671875,2.50244140625,-1.8310546875,-0.18310546875,-0.05363912135362625,-0.001875596004538238,0.23705267906188965,-0.9700131416320801
0,1650776486,950812013,-5.992108310266085,1.7294219338155057,27.388298713205966,-0.05810546875,0.087890625,0.9921875,-0.67138671875,2.25830078125,-0.79345703125,-0.05434347316622734,-0.0022701690904796124,0.2371547967195511,-0.9699480533599854
0,1650776486,970792727,-5.978119229072252,1.7736287323928264,27.398557657339328,-0.0517578125,0.09619140625,0.90185546875,-1.28173828125,-2.197265625,-0.48828125,-0.054316192865371704,-0.002668590983375907,0.23725946247577667,-0.9699230790138245
0,1650776487,3168880,-5.822267118817255,1.7506653162381263,27.40870219580409,-0.04638671875,0.07470703125,1.01171875,-2.197265625,-0.06103515625,-0.18310546875,-0.052949994802474976,-0.0027921320870518684,0.23733234405517578,-0.9699804186820984
0,1650776487,11758818,-5.657394036215964,1.7806656415069377,27.419948102272514,-0.03515625,0.08837890625,0.990234375,0.18310546875,1.15966796875,-0.18310546875,-0.051616422832012177,-0.0033825915306806564,0.23743486404418945,-0.970025360584259
0,1650776487,39780080,-5.616107250230529,1.8448520240670154,27.413140111217302,0.01953125,0.0751953125,1.06396484375,-0.8544921875,-0.54931640625,0.79345703125,-0.05139884352684021,-0.00401474442332983,0.2374005913734436,-0.9700428247451782
0,1650776487,55491409,-5.5514770120961066,1.7106571630096592,27.41351747916895,0.08251953125,0.09521484375,1.04541015625,1.03759765625,2.5634765625,-0.18310546875,-0.050575464963912964,-0.0030120154842734337,0.2373506724834442,-0.9701019525527954
0,1650776487,71761152,-5.618782549951058,1.790647215926971,27.417957102129456,-0.0908203125,0.11328125,0.98046875,0.244140625,1.3427734375,0.0,-0.051310062408447266,-0.0035480125807225704,0.2374207079410553,-0.9700444340705872
0,1650776487,115744693,-5.566316878728428,1.7169307984840216,27.417545583231963,-0.06494140625,0.11962890625,0.9638671875,2.3193359375,-1.03759765625,-0.67138671875,-0.05071411654353142,-0.0030326247215270996,0.237387552857399,-0.970085620880127
0,1650776487,138182938,-5.51395109902241,1.6834876309867004,27.44176714157612,0.0615234375,0.0732421875,1.068359375,-1.89208984375,-0.30517578125,-0.732421875,-0.05020252987742424,-0.0028472719714045525,0.23757855594158173,-0.9700661301612854
0,1650776487,173350199,-5.515221941094856,1.5004398418908282,27.475933455351814,-0.00146484375,0.10546875,0.9287109375,-0.54931640625,0.244140625,-1.15966796875,-0.04983629658818245,-0.0012796634109690785,0.23779843747615814,-0.9700344204902649
0,1650776487,196658226,-5.461190875891823,1.3599380481869057,27.52644953445323,0.005859375,0.1142578125,1.04931640625,-6.89697265625,2.3193359375,-2.86865234375,-0.04908888041973114,-0.00018038525013253093,0.23817235231399536,-0.9699815511703491
0,1650776487,215766502,-4.898443906211656,1.3974495538303215,27.563791886192984,-0.07470703125,-0.42529296875,0.9521484375,-25.69580078125,-1.46484375,-2.3193359375,-0.04440300539135933,-0.0016532267909497023,0.23849737644195557,-0.970126211643219
0,1650776487,256104610,-4.7002369391397645,1.4818561778196928,27.62197656018503,0.19140625,-0.16796875,0.541015625,-3.2958984375,0.18310546875,3.0517578125,-0.04290129244327545,-0.0027587751392275095,0.2390138804912567,-0.9700640439987183
0,1650776487,275758851,-4.206307113555238,1.544492747768412,27.63837072174035,-0.02294921875,-0.38330078125,0.93359375,-19.47021484375,6.7138671875,-1.15966796875,-0.0388503298163414,-0.004313887096941471,0.2391563206911087,-0.9701940417289734
0,1650776487,316744495,-4.189758418969943,1.510346924560226,27.691458367064275,-0.1640625,0.0927734375,0.751953125,1.40380859375,-0.54931640625,-4.2724609375,-0.03864111751317978,-0.004041354171931744,0.23959551751613617,-0.970095157623291
0,1650776487,331112591,-4.029369782445588,1.6111333026746397,27.70100355642937,-0.078125,0.00830078125,1.13525390625,-0.06103515625,1.77001953125,-0.9765625,-0.037493642419576645,-0.005227041430771351,0.2396976202726364,-0.970109224319458
0,1650776487,375692018,-4.013005502967884,1.590644976320423,27.693790876665837,-0.02734375,0.0625,1.0625,-1.953125,-2.9296875,0.79345703125,-0.0373120941221714,-0.005090128630399704,0.2396303117275238,-0.9701336622238159
0,1650776487,393039195,-4.034336183745833,1.493836009458778,27.697680669398157,-0.03955078125,0.072265625,0.791015625,0.48828125,2.8076171875,-1.03759765625,-0.03729116544127464,-0.004224476870149374,0.23963803052902222,-0.9701367020606995
0,1650776487,431469512,-4.093063430890073,1.5916617140114029,27.74002954979953,-0.05322265625,0.05908203125,1.1005859375,-4.45556640625,1.3427734375,-1.89208984375,-0.037993963807821274,-0.004915990401059389,0.24002550542354584,-0.9700103998184204
0,1650776487,475414557,-4.09949960352234,1.3247262885813744,27.81966272533271,0.001953125,0.103515625,1.05322265625,0.91552734375,4.7607421875,-1.89208984375,-0.03749329224228859,-0.0026162995491176844,0.24062611162662506,-0.9698898792266846
0,1650776487,496363102,-4.162494438237368,1.4777531551192191,27.82550424462036,-0.11376953125,0.10986328125,1.09521484375,3.47900390625,0.06103515625,-0.1220703125,-0.038346871733665466,-0.0037775076925754547,0.24072006344795227,-0.9698294401168823
0,1650776487,516622798,-4.3690052077927035,1.4714386452315424,27.696096065510716,-0.056640625,0.14599609375,0.93701171875,0.54931640625,-0.8544921875,7.62939453125,-0.04007762670516968,-0.0033354992046952248,0.23962931334972382,-0.970031201839447
0,1650776487,535580830,-4.4663985827152075,1.403200252946355,27.495413154864693,-0.0263671875,0.0859375,0.96484375,-1.52587890625,2.197265625,10.986328125,-0.04075539857149124,-0.002625442575663328,0.23791219294071198,-0.9704277515411377
0,1650776487,577456831,-3.9681260374790224,1.3086689407294976,26.89312878140026,0.130859375,-0.36962890625,1.2568359375,-13.5498046875,4.57763671875,15.07568359375,-0.03632424771785736,-0.0030500234570354223,0.23276837170124054,-0.9718488454818726
0,1650776487,619274559,-3.9298880771843523,1.0343406892965765,26.28009369018223,0.04638671875,0.24072265625,1.04638671875,-1.89208984375,4.21142578125,14.58740234375,-0.03543964773416519,-0.000990257365629077,0.22749045491218567,-0.9731347560882568
0,1650776487,635986105,-3.843242004920863,1.066854417458247,26.08595410076108,-0.00244140625,0.0380859375,0.958984375,-3.84521484375,0.18310546875,15.44189453125,-0.034765712916851044,-0.0014973290963098407,0.22584930062294006,-0.9735405445098877
0,1650776487,672399060,-3.897693553644674,0.7918314610815416,25.41900320378226,-0.033203125,0.06982421875,0.8994140625,0.54931640625,-1.0986328125,13.916015625,-0.034692566841840744,0.0007449112017638981,0.22010469436645508,-0.9748589396476746
0,1650776487,695153538,-3.935265143608445,0.6363646695452683,25.143370919826395,0.01318359375,0.05126953125,1.0087890625,-3.173828125,-1.220703125,14.892578125,-0.03471922501921654,0.0020562929566949606,0.2177153378725052,-0.9753924608230591
0,1650776487,744129233,-3.4277306484143106,0.360933449283096,24.53328134768793,0.1201171875,-0.4677734375,1.05078125,-23.37646484375,7.26318359375,12.939453125,-0.029894063249230385,0.00327784800902009,0.21245744824409485,-0.9767074584960938
0,1650776487,775993725,-3.394925463274151,0.47673397057537314,23.99379885609447,-0.05517578125,-0.09619140625,0.76123046875,2.685546875,0.42724609375,13.671875,-0.02983911894261837,0.0020895071793347597,0.20788626372814178,-0.977695643901825
0,1650776487,816333689,-3.382199540189948,0.6258312905454921,23.45862279877271,-0.07470703125,0.1015625,1.0283203125,4.8828125,-5.92041015625,14.404296875,-0.030004072934389114,0.0006541313487105072,0.20335446298122406,-0.9786450862884521
0,1650776487,836297762,-3.535967588974445,0.587701759503896,23.094481508457235,-0.06591796875,0.07763671875,1.02099609375,0.06103515625,-0.8544921875,13.7939453125,-0.03125353530049324,0.0011533440556377172,0.20023292303085327,-0.9792490601539612
0,1650776487,885910625,-3.8694413299165626,0.6186022290001213,22.491389465123447,-0.05859375,0.09912109375,1.07666015625,1.03759765625,-3.60107421875,9.765625,-0.03416429087519646,0.001292194239795208,0.19508133828639984,-0.9801911115646362
0,1650776487,892353055,-3.9005383274339844,0.5938039465579206,22.37302399435442,-0.0205078125,0.0986328125,0.97412109375,3.41796875,-3.2958984375,9.58251953125,-0.034389741718769073,0.001521747442893684,0.19406144320964813,-0.9803852438926697
0,1650776487,912227205,-4.045966715241896,0.4232536694154526,22.20604123707324,-0.00830078125,0.07861328125,0.92724609375,1.953125,-2.50244140625,8.7890625,-0.035350251942873,0.0031756942626088858,0.19258029758930206,-0.9806392192840576
0,1650776487,958226764,-4.329907497436258,0.27107401313895374,21.90510993243165,-0.01806640625,0.1201171875,1.18212890625,-5.37109375,1.708984375,5.0048828125,-0.03753749653697014,0.004856563173234463,0.18994764983654022,-0.9810643792152405
0,1650776487,995727042,-4.574857290979955,0.2322546329911863,21.725513523300748,-0.04736328125,0.10400390625,0.9775390625,2.50244140625,1.5869140625,4.39453125,-0.039578959345817566,0.005532890558242798,0.188386008143425,-0.9812816381454468
0,1650776488,16244633,-4.6930818890973525,0.33891323956409225,21.595584542266888,-0.015625,0.0625,0.916015625,1.03759765625,1.46484375,5.7373046875,-0.040771931409835815,0.0047676763497292995,0.18730448186397552,-0.9814438819885254
0,1650776488,58718760,-4.778346128714384,0.5354665004440483,21.3658528370808,0.01708984375,0.11669921875,0.982421875,-3.173828125,-1.64794921875,6.103515625,-0.04182935133576393,0.0031397342681884766,0.1854020357131958,-0.9817671179771423
0,1650776488,76141491,-4.8079865883913,0.5151987144948288,21.218984986905312,-0.01123046875,0.12109375,0.9921875,-1.5869140625,-0.30517578125,5.615234375,-0.042054854333400726,0.003307452192530036,0.18413566052913666,-0.9819951057434082
0,1650776488,120020005,-4.952569313402599,0.3749802669197561,20.952322448876966,0.064453125,0.06982421875,0.9375,-2.38037109375,1.220703125,5.7373046875,-0.043079860508441925,0.0046411617659032345,0.1817946583032608,-0.9823815226554871
0,1650776488,157492762,-5.095429123195763,0.41038463252379653,20.730541083884773,-0.03173828125,0.12353515625,0.984375,5.18798828125,-3.96728515625,5.2490234375,-0.044369373470544815,0.00447841826826334,0.17990052700042725,-0.9826734662055969
0,1650776488,198381123,-4.9336176728899295,0.2913881696693353,20.56962011949198,-0.017578125,0.0732421875,1.0458984375,7.6904296875,-3.2958984375,4.08935546875,-0.04280252009630203,0.00518484553322196,0.1784830242395401,-0.9829979538917542
0,1650776488,237531137,-4.972662449280308,0.23487835944739677,20.42393901468478,0.0263671875,0.06689453125,1.04052734375,2.9296875,2.9296875,2.74658203125,-0.04305678606033325,0.005675692576915026,0.17721055448055267,-0.9832143783569336
0,1650776488,258258685,-4.962055165499278,0.39190243411443293,20.35900611379276,0.00244140625,0.0380859375,0.9208984375,3.7841796875,2.5634765625,3.47900390625,-0.04321075975894928,0.004287458956241608,0.17671164870262146,-0.9833044409751892
0,1650776488,298465429,-4.9740169611700855,0.5826732461708857,20.12643304991195,-0.02783203125,0.05615234375,0.94580078125,0.30517578125,1.15966796875,5.615234375,-0.04361237585544586,0.002580316737294197,0.17478503286838531,-0.9836369156837463
0,1650776488,335431934,-4.997432557192182,0.6655476666303527,19.92526690338215,-0.06494140625,0.06201171875,0.97509765625,-0.48828125,-0.9765625,5.43212890625,-0.043942730873823166,0.001827463274821639,0.17308786511421204,-0.9839239120483398
0,1650776488,360265469,-4.808500560126344,0.5044410064695001,19.780886949611833,0.001953125,0.0390625,1.0830078125,1.77001953125,1.8310546875,5.31005859375,-0.04208136349916458,0.0028725992888212204,0.1717938333749771,-0.984229564666748
0,1650776488,396108491,-4.814611871886212,0.4475200508760385,19.586352916766113,-0.00732421875,0.0830078125,1.00732421875,-2.3193359375,1.220703125,5.615234375,-0.04205435886979103,0.0032992996275424957,0.17010237276554108,-0.9845231175422668
0,1650776488,435346539,-4.5202606007362816,0.6113927508877612,19.32543456782975,-0.00634765625,0.0439453125,0.94970703125,-1.77001953125,-5.92041015625,6.2255859375,-0.03977127745747566,0.0013636398361995816,0.16792239248752594,-0.9849967360496521
0,1650776488,458281245,-4.384221161716199,0.43093144237278164,19.224509985106348,0.0263671875,0.0498046875,0.99609375,-6.9580078125,2.62451171875,4.82177734375,-0.038340408354997635,0.0026818944606930017,0.16699807345867157,-0.9852078557014465
0,1650776488,496479364,-4.076939488693788,0.3642671952478705,18.925470642864852,-0.017578125,0.0439453125,1.103515625,-5.7373046875,-2.50244140625,9.46044921875,-0.035608597099781036,0.002714392263442278,0.16441276669502258,-0.9857449531555176
0,1650776488,532824477,-3.785367677649229,0.04941094248751434,18.40287579399425,-0.02685546875,0.05419921875,1.0126953125,-4.21142578125,-2.25830078125,14.7705078125,-0.032671473920345306,0.004855891689658165,0.15983277559280396,-0.9865913391113281
0,1650776488,576787441,-3.533478198465387,-0.08307667810224274,17.721236575205317,-0.0546875,0.046875,1.0078125,-1.52587890625,-2.5634765625,20.6298828125,-0.03035096637904644,0.005464850924909115,0.15393590927124023,-0.9875995516777039
0,1650776488,611623910,-3.5858838920893676,-0.39058607523447164,16.709239889283086,0.04833984375,0.07568359375,1.09716796875,-6.9580078125,-5.31005859375,24.10888671875,-0.03046041540801525,0.007916728034615517,0.1451219618320465,-0.9889130592346191
0,1650776488,636870992,-3.6141587408191045,-0.47131843097634635,16.280442320736977,-0.02587890625,0.05322265625,1.03564453125,0.42724609375,-0.18310546875,22.52197265625,-0.03063417226076126,0.008534644730389118,0.1413961797952652,-0.9894421696662903
0,1650776488,678041600,-3.5654635474617336,-0.8458056436153922,15.265792106322197,0.11767578125,0.0546875,1.0556640625,-3.60107421875,-0.67138671875,23.86474609375,-0.02985312044620514,0.011444060131907463,0.13252995908260345,-0.9906633496284485
0,1650776488,714474524,-3.64596906621797,-0.955667902393725,14.196189604940077,0.04638671875,0.08447265625,1.0068359375,-3.90625,-0.18310546875,26.2451171875,-0.03053680993616581,0.012202361598610878,0.12323835492134094,-0.9918321967124939
0,1650776488,735346171,-3.6453722784392397,-1.1290651678008983,13.69486311137125,0.119140625,0.091796875,1.05908203125,0.91552734375,-2.9296875,26.9775390625,-0.030403990298509598,0.013569540344178677,0.11884868144989014,-0.9923540353775024
0,1650776488,790595267,-3.6641066335589385,-1.576195711131261,11.87687763640448,0.12841796875,0.037109375,0.95703125,-2.50244140625,-1.40380859375,31.982421875,-0.03037303499877453,0.01698095165193081,0.10295979678630829,-0.9940767288208008
0,1650776488,810923797,-3.656957986818874,-1.7137628713696051,11.275470088474748,0.10400390625,0.07568359375,0.98779296875,-4.150390625,1.46484375,31.982421875,-0.03028128109872341,0.0180091243237257,0.09770245850086212,-0.9945918917655945
0,1650776488,855774878,-3.7361830585491442,-1.6314758471787592,9.791428783729181,0.0615234375,0.1123046875,0.95556640625,0.9765625,-0.30517578125,36.56005859375,-0.03126199170947075,0.016959110274910927,0.08482599258422852,-0.9957607984542847
0,1650776488,892500577,-3.7984052281143144,-1.979624249552649,8.329226155081082,0.07861328125,0.0673828125,1.1005859375,0.48828125,-7.2021484375,39.73388671875,-0.031794995069503784,0.01962597668170929,0.07200050354003906,-0.9967045187950134
0,1650776488,910580988,-3.88324813043692,-2.3524151206782986,7.251447063488811,0.09375,0.09326171875,1.01708984375,0.1220703125,-9.27734375,44.37255859375,-0.032508935779333115,0.02261655405163765,0.06249485909938812,-0.9972593188285828
0,1650776488,951842574,-3.9632783107156055,-2.966599604667597,5.409539704727718,0.083984375,0.08056640625,0.921875,4.82177734375,-3.90625,51.7578125,-0.03330833464860916,0.02747250720858574,0.04625147581100464,-0.9979963302612305
0,1650776488,997377801,-3.791983996520856,-3.6469026677001457,2.868672407772774,0.1669921875,0.02392578125,1.04443359375,4.21142578125,-1.40380859375,60.1806640625,-0.03226209059357643,0.03262021765112877,0.023952465504407883,-0.9986598491668701
0,1650776489,35873975,-3.7233504137591598,-4.218532725282738,0.11242135190147942,0.24951171875,0.1240234375,1.021484375,-1.64794921875,-0.42724609375,64.5751953125,-0.03242852911353111,0.036817729473114014,-0.00021580189059022814,-0.9987956881523132
0,1650776489,71641794,-3.5857857081200484,-4.545052906762959,-2.330113272377738,0.18359375,0.0771484375,0.9716796875,-4.2724609375,2.38037109375,65.5517578125,-0.032061558216810226,0.03898942098021507,-0.02154708467423916,-0.9984926581382751
0,1650776489,120246055,-3.1611554087412945,-4.883166053698807,-5.213814230758655,0.2080078125,-0.00244140625,0.9375,-2.38037109375,-0.06103515625,65.7958984375,-0.029466116800904274,0.04128706455230713,-0.04659866541624069,-0.9976250529289246
0,1650776489,137383306,-3.1489974585752605,-4.901320696512701,-6.4323037569896515,0.0712890625,0.09375,1.02978515625,-0.18310546875,-0.1220703125,64.8193359375,-0.029806362465023994,0.04113546758890152,-0.0572035126388073,-0.9970694184303284
0,1650776489,170545046,-2.8605835428047746,-5.073931529669971,-9.372031263028303,0.146484375,0.06103515625,1.1337890625,0.0,2.13623046875,66.2841796875,-0.028467915952205658,0.04206506162881851,-0.08269090950489044,-0.9952800869941711
0,1650776489,195703069,-2.7371703487956953,-5.176289171458605,-10.644412689357992,0.125,0.03955078125,0.837890625,4.82177734375,-0.9765625,67.32177734375,-0.027944162487983704,0.042735639959573746,-0.0937093049287796,-0.9942893981933594
0,1650776489,236707016,-2.3397777766098944,-5.5190660569371035,-13.704005319575312,0.09814453125,-0.00341796875,0.9716796875,1.8310546875,-4.69970703125,69.4580078125,-0.025990327820181847,0.04535745829343796,-0.12011789530515671,-0.9913824200630188
0,1650776489,271503804,-2.06890634794894,-5.93174565970245,-16.73558734400641,0.23046875,0.0693359375,1.16357421875,-0.9765625,0.9765625,68.54248046875,-0.02536601573228836,0.04855819791555405,-0.1462324857711792,-0.9877321124076843
0,1650776489,315427631,-1.9539467936982209,-6.065681400458169,-19.334754360952232,0.06982421875,0.0615234375,0.9072265625,5.9814453125,-0.06103515625,68.603515625,-0.02566840685904026,0.04929015785455704,-0.16855783760547638,-0.984123945236206
0,1650776489,356186452,-1.9129080289570224,-6.26525099026948,-22.37116959799476,0.1416015625,0.04541015625,1.009765625,-1.220703125,-0.244140625,67.68798828125,-0.026950370520353317,0.0503685437142849,-0.194565549492836,-0.979224681854248
0,1650776489,375249030,-1.9278484274361907,-6.32121841410221,-23.646796217953852,0.107421875,0.115234375,0.9384765625,-0.91552734375,0.9765625,67.0166015625,-0.027736235409975052,0.050515979528427124,-0.2054630070924759,-0.9769666790962219
0,1650776489,412223183,-1.804570983436865,-6.284691416194629,-26.66164171759748,0.07275390625,0.05859375,1.08251953125,-1.28173828125,-1.220703125,68.115234375,-0.027937566861510277,0.04970771074295044,-0.2310379147529602,-0.9712724685668945
0,1650776489,453631940,-1.6011901480686879,-6.584999466074456,-29.208562910034583,0.1279296875,0.0830078125,0.97021484375,1.0986328125,-0.6103515625,66.40625,-0.027978725731372833,0.05205501616001129,-0.2524774670600891,-0.9657962918281555
0,1650776489,495972944,-1.670289144189297,-6.641539345136999,-32.15308819707835,0.00439453125,0.0732421875,1.07666015625,3.11279296875,-3.23486328125,67.2607421875,-0.030021192505955696,0.05162518471479416,-0.2772381901741028,-0.9589434862136841
0,1650776489,518690236,-1.7045086053744725,-6.7571876812768314,-33.44011440276219,0.13818359375,0.12353515625,0.9453125,5.859375,-3.41796875,68.29833984375,-0.031173504889011383,0.052163802087306976,-0.28800347447395325,-0.9556993246078491
0,1650776489,555239034,-1.0200538545436137,-6.81385946836772,-36.57687194890137,0.24951171875,-0.33203125,1.7333984375,-8.11767578125,4.150390625,73.54736328125,-0.027084503322839737,0.05363476648926735,-0.31373611092567444,-0.9476072192192078
0,1650776489,596008224,-0.9515957222662222,-7.197954729456564,-39.63313571567196,0.18701171875,0.09716796875,1.04736328125,-10.80322265625,4.45556640625,70.00732421875,-0.029076820239424706,0.05624380707740784,-0.33882007002830505,-0.9387184381484985
0,1650776489,635466565,-0.5834708308390433,-7.031346351919266,-42.07735647620146,0.10791015625,0.091796875,1.0126953125,0.79345703125,12.3291015625,57.18994140625,-0.026757393032312393,0.055408552289009094,-0.35860922932624817,-0.9314577579498291
0,1650776489,656330179,-0.4790186154918895,-6.688950676373819,-43.04250318705928,0.00048828125,-0.0068359375,0.99755859375,-5.9814453125,7.4462890625,48.15673828125,-0.025283394381403923,0.05274030193686485,-0.3664451539516449,-0.9285996556282043
0,1650776489,695710535,0.06395854505844731,-6.246134998329906,-44.60146312926342,0.0244140625,0.134765625,0.6767578125,15.380859375,-0.48828125,20.44677734375,-0.02015809342265129,0.05061739683151245,-0.3788762092590332,-0.923842191696167
0,1650776489,730723424,0.09039663319040639,-5.937403190769337,-45.01263368710902,-0.05517578125,0.02001953125,1.0947265625,-4.0283203125,0.732421875,9.70458984375,-0.01909681223332882,0.04814748466014862,-0.38223370909690857,-0.9226128458976746
0,1650776489,756311378,-0.03268499648912993,-5.77758658258797,-45.147051809974876,-0.01025390625,0.15234375,0.90966796875,3.60107421875,-3.0517578125,7.01904296875,-0.019609101116657257,0.0464271642267704,-0.38339415192604065,-0.9222087264060974
0,1650776489,790647706,-0.32781943820683124,-5.371833645414662,-45.46406821011185,0.01611328125,0.07568359375,0.97119140625,1.8310546875,5.859375,8.4228515625,-0.020743651315569878,0.042116448283195496,-0.3861193060874939,-0.9212533831596375
0,1650776489,831202938,-0.5220227671667591,-5.0329764347461055,-45.770210949090156,-0.04736328125,0.0869140625,0.9853515625,-3.60107421875,-0.732421875,8.7890625,-0.021267391741275787,0.038680549710989,-0.38868963718414307,-0.9203107953071594
0,1650776489,875444276,-0.694893841203577,-4.59356645977709,-46.0823130281193,-0.01953125,0.072265625,0.98974609375,1.03759765625,0.30517578125,7.568359375,-0.021260833367705345,0.0345064178109169,-0.3912942409515381,-0.9193726778030396
0,1650776489,897834776,-0.8721768972791056,-4.352656296240632,-46.236275737295145,0.0419921875,0.07861328125,1.05126953125,-1.28173828125,4.5166015625,6.2255859375,-0.021904466673731804,0.03193826973438263,-0.3925994634628296,-0.9188939332962036
0,1650776489,935357390,-0.33154079740700393,-4.147649875849991,-46.47324573545416,0.1357421875,-0.33349609375,1.48681640625,-2.44140625,4.69970703125,6.04248046875,-0.016933642327785492,0.03211092948913574,-0.39436545968055725,-0.9182364344596863
0,1650776489,975916143,-0.6074381780800296,-4.0834661613325585,-46.68642959982859,-0.009765625,0.1650390625,1.06396484375,0.6103515625,0.6103515625,4.638671875,-0.018980635330080986,0.030611705034971237,-0.39615434408187866,-0.9174773097038269
0,1650776490,11045098,-0.711693331797458,-3.8972777658789495,-46.84212034686445,-0.009765625,0.05859375,0.92724609375,-0.30517578125,-2.8076171875,4.45556640625,-0.01921132206916809,0.02873418480157852,-0.39744141697883606,-0.9169764518737793
0,1650776490,35898442,-0.5835171480593525,-3.838933009328231,-46.99013737636779,-0.0546875,-0.7001953125,0.60302734375,-12.87841796875,-6.89697265625,8.6669921875,-0.018020519986748695,0.028688503429293633,-0.39859768748283386,-0.9164999723434448
0,1650776490,77135931,-0.6593817133571237,-3.8300405299156974,-47.5043720736943,-0.00927734375,0.2421875,0.55712890625,24.84130859375,-13.97705078125,21.8505859375,-0.018723422661423683,0.02826973795890808,-0.4027259945869446,-0.9146923422813416
0,1650776490,111074489,-0.5144408836620747,-3.7966993883691034,-48.85402769897257,-0.09716796875,-0.06005859375,1.33935546875,-3.23486328125,0.79345703125,34.85107421875,-0.017783982679247856,0.028305435553193092,-0.41343802213668823,-0.9099184274673462
0,1650776490,156725141,-0.9055080603462092,-3.8911493786461553,-50.57188857712248,0.05908203125,0.1123046875,0.94873046875,-2.74658203125,-2.25830078125,40.0390625,-0.021641623228788376,0.027323078364133835,-0.42711907625198364,-0.903523325920105
0,1650776490,195513194,-1.0047369418864487,-3.949176531400468,-52.022870058737894,0.07958984375,0.06640625,0.90185546875,-2.50244140625,2.44140625,37.841796875,-0.022985287010669708,0.02712199091911316,-0.43854478001594543,-0.8980059027671814
0,1650776490,211360397,-1.2871240694880444,-4.024828987307999,-52.90054595198995,0.06396484375,0.1455078125,0.87646484375,5.4931640625,-5.2490234375,33.69140625,-0.025690512731671333,0.02643825300037861,-0.44547125697135925,-0.8945369720458984
0,1650776490,235547677,-1.4528514593441164,-4.088739494258631,-53.46455223779834,0.0771484375,0.2041015625,1.07177734375,-1.46484375,-2.8076171875,29.60205078125,-0.027361305430531502,0.026158714666962624,-0.449903666973114,-0.8922745585441589
0,1650776490,275948601,-1.6260759423096294,-4.07963826718959,-54.461015366000666,0.04296875,0.13671875,1.056640625,0.67138671875,2.99072265625,24.96337890625,-0.028894290328025818,0.025157375261187553,-0.45768454670906067,-0.8882888555526733
0,1650776490,295898881,-1.9055677100333743,-3.954998840781081,-55.06621110759882,-0.00146484375,0.10986328125,0.873046875,7.14111328125,-2.74658203125,23.3154296875,-0.030685441568493843,0.022912554442882538,-0.4624306857585907,-0.8858280181884766
0,1650776490,335969333,-2.161675684803346,-3.9262992396623337,-55.932388377383155,0.1123046875,0.07470703125,0.974609375,-1.40380859375,4.638671875,23.13232421875,-0.03271238133311272,0.021410340443253517,-0.46916258335113525,-0.8822460770606995
0,1650776490,355818554,-2.279411284064852,-3.778615181881025,-56.476508567423046,0.0341796875,0.09912109375,0.93994140625,0.06103515625,-3.60107421875,21.17919921875,-0.03310926631093025,0.019633475691080093,-0.47336602210998535,-0.8800243735313416
0,1650776490,396111156,-1.6823841285489203,-3.711202068546646,-57.177692372521975,0.2216796875,0.0478515625,1.76123046875,4.82177734375,8.1787109375,15.2587890625,-0.028377478942275047,0.021408138796687126,-0.47863587737083435,-0.8772936463356018
0,1650776490,416804142,-2.0736053046544973,-3.6491229060672232,-57.453734467828035,0.08154296875,-0.302734375,0.671875,10.55908203125,2.38037109375,7.8125,-0.03116004541516304,0.01922340877354145,-0.48081761598587036,-0.8760559558868408
0,1650776490,455380029,-2.1892320830097622,-3.4576880715573983,-57.734714789904025,-0.0576171875,-0.11083984375,1.0390625,5.2490234375,4.2724609375,4.638671875,-0.031284719705581665,0.017197106033563614,-0.4829804003238678,-0.8749032020568848
0,1650776490,499151052,-2.527168071914014,-3.2774009595466804,-57.974563712798194,0.0400390625,0.05029296875,1.05908203125,-3.0517578125,-0.54931640625,5.37109375,-0.03313661366701126,0.014326008036732674,-0.48485109210014343,-0.8738513588905334
0,1650776490,536159221,-2.891780431838808,-3.0703303279228153,-58.17584255744929,-0.068359375,0.08935546875,0.93701171875,9.1552734375,-1.8310546875,6.04248046875,-0.035062529146671295,0.01114148460328579,-0.4864126741886139,-0.872954249382019
0,1650776490,555788309,-3.1042114813006636,-2.9124261727090524,-58.359164834772436,-0.0361328125,0.115234375,0.9384765625,-5.18798828125,4.638671875,7.32421875,-0.03602658584713936,0.008978331461548805,-0.48781323432922363,-0.8721581697463989
0,1650776490,595676356,-3.19370873065581,-2.635543323804841,-58.666885347449025,0.0185546875,0.0947265625,1.0146484375,-2.74658203125,-0.30517578125,8.056640625,-0.03554921969771385,0.006392916664481163,-0.49013030529022217,-0.8709005117416382
0,1650776490,613307027,-3.2426352966713154,-2.5049176634756396,-58.86045973871635,-0.01806640625,0.0712890625,1.080078125,1.15966796875,-1.28173828125,8.36181640625,-0.035372331738471985,0.005130429286509752,-0.49158790707588196,-0.8700941801071167
0,1650776490,656445522,-3.4966235649210557,-2.341011692972139,-59.14191134384507,-0.06689453125,0.09423828125,0.97509765625,1.220703125,-0.18310546875,7.75146484375,-0.03660599887371063,0.002705567516386509,-0.49371039867401123,-0.8688514232635498
0,1650776490,670714415,-3.0026706874480804,-2.3182744201119903,-59.342151999742335,-0.0029296875,-0.38623046875,1.076171875,-18.4326171875,2.685546875,7.01904296875,-0.03277076035737991,0.004603910259902477,-0.49520939588546753,-0.8681432604789734
0,1650776490,711422003,-2.953081379639672,-2.3249771835653,-59.550459109049385,-0.07177734375,-0.11181640625,0.8642578125,-3.96728515625,-1.708984375,3.662109375,-0.032432783395051956,0.0048100706189870834,-0.496785432100296,-0.867253839969635
0,1650776490,736471096,-2.7435198634028684,-2.135042856238762,-59.66291134354447,-0.06689453125,-0.00634765625,1.17919921875,-8.23974609375,1.5869140625,4.57763671875,-0.03002886474132538,0.004250732716172934,-0.49760833382606506,-0.8668714761734009
0,1650776490,751294082,-2.749352631510648,-2.138551439038033,-59.745925462716805,-0.0283203125,0.11181640625,0.89892578125,0.79345703125,6.8359375,3.23486328125,-0.03009127452969551,0.0042301625944674015,-0.498236745595932,-0.8665083646774292
0,1650776490,795766114,-2.903376385502197,-1.5922894510848093,-60.012343821482325,-0.013671875,0.11474609375,1.0859375,-3.173828125,11.71875,6.89697265625,-0.028882943093776703,-0.0006394252413883805,-0.5001893043518066,-0.8654341101646423
0,1650776490,810633773,-2.899567701266269,-1.425144049924019,-60.1505595295267,-0.0400390625,0.12890625,0.9794921875,-4.150390625,-2.25830078125,7.568359375,-0.0281231552362442,-0.0019195748027414083,-0.5012105107307434,-0.8648662567138672
0,1650776490,851056138,-3.190244117199321,-1.3018662857595764,-60.45610804204723,-0.03125,0.216796875,1.015625,4.57763671875,-3.173828125,7.62939453125,-0.029767245054244995,-0.004201057832688093,-0.5034887194633484,-0.8634786605834961
0,1650776490,877186281,-3.3966752723621436,-1.2945331171902157,-60.580260390590546,-0.07958984375,0.18994140625,0.978515625,-2.13623046875,0.54931640625,6.4697265625,-0.031284913420677185,-0.005197233986109495,-0.5044142603874207,-0.86287921667099
0,1650776490,916850195,-3.5514650747577923,-1.4776722600662369,-60.95452743635057,0.0771484375,0.05810546875,1.02880859375,-2.50244140625,-0.6103515625,9.58251953125,-0.03324071690440178,-0.004607630893588066,-0.5072550177574158,-0.8611424565315247
0,1650776490,935608990,-3.4220771727722443,-1.5059976948845144,-61.14433156319605,0.0390625,-0.00439453125,0.966796875,-1.89208984375,-3.35693359375,10.55908203125,-0.03238721191883087,-0.003875560825690627,-0.508690357208252,-0.8603314757347107
0,1650776490,975656273,-3.452701820019877,-1.5609557448239642,-61.54074891243442,0.0439453125,0.052734375,1.0400390625,2.25830078125,-3.60107421875,8.7890625,-0.03284812346100807,-0.0037123607471585274,-0.5116716027259827,-0.8585449457168579
0,1650776490,996540016,-3.557666246193929,-1.527179071996076,-61.68464733786825,0.02001953125,0.03564453125,1.03125,2.50244140625,0.18310546875,7.62939453125,-0.03347832337021828,-0.004476265981793404,-0.5127398371696472,-0.8578794598579407
0,1650776491,31007995,-3.987347897350731,-1.4666907032630316,-62.06724038422651,0.06396484375,0.1396484375,0.91845703125,-0.48828125,7.8125,8.85009765625,-0.03640154376626015,-0.0069734337739646435,-0.515568196773529,-0.8560466766357422
0,1650776491,55385775,-3.9698510871312735,-1.2532408883977861,-62.25090417100815,-0.05810546875,0.07421875,1.0576171875,1.64794921875,-1.40380859375,10.25390625,-0.0352981872856617,-0.008546709083020687,-0.5168968439102173,-0.8552769422531128
0,1650776491,75769249,-4.2319617309646285,-1.2921662431993945,-62.43676044851337,-0.00927734375,0.18994140625,1.083984375,6.89697265625,-0.732421875,9.6435546875,-0.037414390593767166,-0.009499062784016132,-0.5182710886001587,-0.8543447852134705
0,1650776491,115548269,-4.796223721980069,-1.3121265105534048,-62.91308418085172,-0.01318359375,0.1474609375,0.9755859375,2.25830078125,2.50244140625,11.53564453125,-0.0416610985994339,-0.012075369246304035,-0.5217691659927368,-0.851983368396759
0,1650776491,156028395,-5.2996901991932255,-1.1378359844688408,-63.47098086244753,-0.00048828125,0.15966796875,0.96826171875,2.74658203125,-1.220703125,13.5498046875,-0.04453496262431145,-0.015881063416600227,-0.5258006453514099,-0.8492927551269531
0,1650776491,175817039,-5.501894961363691,-1.1692813216339333,-63.72194933331048,0.02685546875,0.1884765625,0.943359375,1.89208984375,0.1220703125,13.18359375,-0.04614116623997688,-0.0166767667979002,-0.5276401042938232,-0.848050057888031
0,1650776491,215928835,-5.882695083064827,-1.1357803109720785,-64.19743978257009,0.0087890625,0.19482421875,0.99609375,-1.46484375,0.42724609375,12.02392578125,-0.048727165907621384,-0.01888047531247139,-0.5310843586921692,-0.845706045627594
0,1650776491,235616100,-6.027780253866945,-1.1000375041585788,-64.49298206795653,0.01318359375,0.1337890625,1.0087890625,0.42724609375,-3.662109375,11.5966796875,-0.04958123341202736,-0.019944753497838974,-0.5332270264625549,-0.8442824482917786
0,1650776491,255736240,-6.066128350961982,-1.120284852901141,-64.69944502618769,-0.02197265625,0.09716796875,0.9111328125,3.0517578125,2.50244140625,10.68115234375,-0.04992176219820976,-0.02006390504539013,-0.5347476005554199,-0.8432973027229309
0,1650776491,295494524,-6.402984743090548,-0.9220854630703591,-65.11818343363366,-0.01708984375,0.203125,1.005859375,-1.220703125,0.48828125,8.30078125,-0.05139250308275223,-0.02328302152454853,-0.5376905798912048,-0.8412524461746216
0,1650776491,315369442,-6.210899759949103,-0.8869105224533222,-65.28130884158107,0.00732421875,0.046875,0.95703125,-3.90625,2.86865234375,7.9345703125,-0.04978515952825546,-0.022710978984832764,-0.5389133095741272,-0.840582013130188
0,1650776491,357140095,-5.832607171447008,-0.9233062526627931,-65.62733988531225,0.13427734375,-0.0400390625,0.64697265625,9.82666015625,-3.11279296875,7.32421875,-0.047118302434682846,-0.020806986838579178,-0.5415338277816772,-0.839099645614624
0,1650776491,371114389,-5.70685058222238,-0.945780029631368,-65.72255955253141,0.01708984375,0.19482421875,1.12841796875,-3.11279296875,1.77001953125,6.89697265625,-0.046286821365356445,-0.020086491480469704,-0.5422608256340027,-0.8386937975883484
0,1650776491,392125750,-5.643641877208966,-1.0309797026164012,-65.83395310770514,-0.05029296875,-0.046875,1.056640625,0.0,0.1220703125,4.638671875,-0.046208202838897705,-0.019208380952477455,-0.5431141257286072,-0.838166356086731
0,1650776491,436358896,-5.431315628462188,-0.9552368534240737,-66.0563577274591,0.1591796875,0.2509765625,0.689453125,23.37646484375,-9.33837890625,5.4931640625,-0.04426005110144615,-0.018842315301299095,-0.5447515249252319,-0.8372167944908142
0,1650776491,455411457,-5.542311752003595,-0.9817724585146906,-66.09091165447019,-0.10546875,0.1083984375,0.82958984375,0.30517578125,5.55419921875,0.67138671875,-0.04519117996096611,-0.019189631566405296,-0.5449937582015991,-0.8370014429092407
0,1650776491,495420339,-4.907345350247476,-0.7960695934615345,-66.23430464590544,0.10693359375,-0.38623046875,1.3134765625,-7.6904296875,7.4462890625,1.46484375,-0.039648205041885376,-0.01757652685046196,-0.5460877418518066,-0.836604654788971
0,1650776491,516279793,-5.104176887975257,-0.6530871070675751,-66.27850963021376,-0.1630859375,0.0927734375,1.08349609375,13.61083984375,-6.7138671875,3.23486328125,-0.040396884083747864,-0.01957428641617298,-0.5463371872901917,-0.8363616466522217
0,1650776491,531830670,-4.633997337682157,-0.634661551203555,-66.34012476671644,0.05322265625,-0.30615234375,1.07080078125,-13.61083984375,11.04736328125,0.91552734375,-0.036867693066596985,-0.017486833035945892,-0.5468576550483704,-0.8362306952476501
0,1650776491,596160658,-4.890409042426783,-0.45083021134383533,-66.53329617682274,-0.04248046875,0.04736328125,1.13525390625,-12.02392578125,1.15966796875,2.99072265625,-0.03782826289534569,-0.02011599764227867,-0.5481728315353394,-0.8352670669555664
0,1650776491,617113746,-4.81979982744766,-0.40776408103833306,-66.59127082249782,-0.03271484375,0.07958984375,1.0595703125,5.79833984375,2.99072265625,2.74658203125,-0.037097495049238205,-0.020110979676246643,-0.5485951900482178,-0.8350226879119873
0,1650776491,631593620,-5.030362606728106,-0.32075096614823495,-66.64645192080235,-0.01025390625,0.15234375,0.86376953125,1.89208984375,-1.0986328125,3.173828125,-0.03820496052503586,-0.021771524101495743,-0.5489327907562256,-0.8347091674804688
0,1650776491,675382467,-5.3914456798427075,-0.32038048174661465,-66.74954679613452,-0.013671875,0.2294921875,0.89453125,-0.9765625,1.15966796875,0.8544921875,-0.040812037885189056,-0.0235405545681715,-0.5496119856834412,-0.834090530872345
0,1650776491,695325098,-5.518317724336164,-0.3600684965381638,-66.77190200528797,0.02001953125,0.16748046875,0.96484375,-3.35693359375,0.06103515625,1.03759765625,-0.04192109405994415,-0.02386830933392048,-0.5497616529464722,-0.8339275121688843
0,1650776491,742160451,-4.598355276158915,-0.01299637339568318,-66.65580927996527,-0.19287109375,0.09033203125,1.58935546875,11.71875,9.033203125,-9.6435546875,-0.033581994473934174,-0.021947035565972328,-0.5489912629127502,-0.8348647952079773
0,1650776491,757784961,-4.878915114714121,0.0856357512150695,-66.56883365107433,-0.14892578125,0.15576171875,0.6689453125,13.97705078125,1.8310546875,-5.9814453125,-0.03517165407538414,-0.02398291416466236,-0.5482713580131531,-0.8352164030075073
0,1650776491,797430186,-4.474412955932571,0.5137633075520683,-65.97333677809759,-0.09619140625,0.01171875,1.1279296875,-7.50732421875,1.5869140625,-17.76123046875,-0.030304433777928352,-0.025010885670781136,-0.5438766479492188,-0.8382447957992554
0,1650776491,815411234,-4.446438208639491,0.6662568857261233,-65.64128030140826,-0.107421875,0.11376953125,0.9541015625,5.615234375,-2.5634765625,-16.66259765625,-0.029450809583067894,-0.02590811625123024,-0.5414043068885803,-0.8398469686508179
0,1650776491,855349682,-4.34805104119275,1.1985269109994585,-64.81300375132831,-0.154296875,0.07763671875,1.09326171875,1.0986328125,0.48828125,-19.47021484375,-0.026424210518598557,-0.029152778908610344,-0.5351725816726685,-0.8438259363174438
0,1650776491,877247818,-4.426960643560731,1.3297026150002575,-64.45604440492511,-0.02392578125,0.12109375,0.86181640625,3.23486328125,0.0,-18.9208984375,-0.0264867153018713,-0.030404353514313698,-0.5324771404266357,-0.8454833030700684
0,1650776491,897982500,-4.43302286333594,1.561994040299512,-64.08998041635827,-0.07861328125,0.1123046875,1.11865234375,0.54931640625,-0.6103515625,-19.287109375,-0.025553012266755104,-0.03206392005085945,-0.5296919345855713,-0.8471985459327698
0,1650776491,930579073,-4.579696906893733,1.6294351147208064,-63.247264846372936,-0.0322265625,0.08837890625,0.89892578125,5.18798828125,-0.3662109375,-18.24951171875,-0.026568854227662086,-0.03304562717676163,-0.523381769657135,-0.8510427474975586
0,1650776491,959852397,-4.7732286094787515,1.7579795950655637,-62.96179709001225,-0.16748046875,0.2021484375,1.19482421875,10.498046875,-5.126953125,-12.75634765625,-0.027504747733473778,-0.03481500223278999,-0.5211551189422607,-0.8523078560829163
0,1650776491,995762555,-5.2433287588227495,1.8806757259334974,-62.6402659348339,-0.109375,0.162109375,1.0029296875,-2.44140625,-1.708984375,-5.06591796875,-0.030547980219125748,-0.03777877613902092,-0.5185640454292297,-0.8536573648452759
0,1650776492,14101115,-5.432843456402155,1.7834923793279711,-62.55414407958921,-0.02880859375,0.1298828125,1.1220703125,2.50244140625,-1.28173828125,-4.8828125,-0.03242907300591469,-0.037888720631599426,-0.5179005861282349,-0.8539857864379883
0,1650776492,56206784,-6.024125675774165,1.7126894644528554,-62.40417361598324,-0.03173828125,0.15771484375,0.9794921875,2.25830078125,2.38037109375,-4.2724609375,-0.037208203226327896,-0.03998483344912529,-0.5166129469871521,-0.854475200176239
0,1650776492,76361196,-6.335619014193536,1.7657481881945127,-62.33861063014029,-0.0517578125,0.2001953125,0.9375,9.3994140625,-1.77001953125,-3.60107421875,-0.03931485861539841,-0.041761696338653564,-0.5159879326820374,-0.8546735048294067
0,1650776492,115473064,-6.82790703305632,1.902347489283125,-62.12890333205338,-0.0546875,0.1259765625,1.04931640625,1.5869140625,0.48828125,-5.55419921875,-0.04245169088244438,-0.04491782933473587,-0.5141685009002686,-0.8554595708847046
0,1650776492,136597388,-7.048557574854052,1.8788877104748352,-62.03955762752045,-0.013671875,0.1865234375,0.97705078125,2.9296875,-1.0986328125,-4.57763671875,-0.044240083545446396,-0.045698415488004684,-0.5134264826774597,-0.8557732105255127
0,1650776492,177070825,-7.0581258161075935,2.042796028855862,-61.79798066676627,0.00439453125,0.13330078125,1.0068359375,1.953125,5.37109375,-5.92041015625,-0.04367354139685631,-0.0468718446791172,-0.5115293264389038,-0.8568742871284485
0,1650776492,195923606,-7.045506187842348,2.2713896537714953,-61.69735148972447,-0.11376953125,0.10009765625,1.06201171875,2.62451171875,1.28173828125,-4.5166015625,-0.04259749501943588,-0.04848514497280121,-0.5106574296951294,-0.8573585152626038
0,1650776492,215927807,-6.964092040483089,2.2525752573724604,-61.619316578457074,-0.00634765625,0.09423828125,0.9794921875,0.42724609375,4.94384765625,-3.23486328125,-0.04210520535707474,-0.047953080385923386,-0.5101179480552673,-0.857733964920044
0,1650776492,255400291,-6.836163451102396,2.3905986529030203,-61.50092890957325,0.0029296875,0.1416015625,1.0888671875,-1.64794921875,1.40380859375,-2.685546875,-0.040580667555332184,-0.04837337136268616,-0.5092105865478516,-0.8583226799964905
0,1650776492,297530505,-6.815803510960235,2.3106491542339054,-61.38927580721104,0.03857421875,0.0478515625,1.02587890625,0.8544921875,-1.40380859375,-2.62451171875,-0.04083136469125748,-0.04764515906572342,-0.5084255337715149,-0.8588167428970337
0,1650776492,316707485,-6.399314370185313,2.3394450183312676,-61.33218225593891,-0.05029296875,-0.43212890625,1.15234375,-16.41845703125,1.03759765625,-2.38037109375,-0.03760431334376335,-0.045993778854608536,-0.5081526637077332,-0.8592155575752258
0,1650776492,355374734,-6.405295481464129,2.257990530167223,-61.19039435895861,-0.009765625,0.15185546875,0.90234375,-1.89208984375,3.90625,-2.74658203125,-0.03806791082024574,-0.04536329209804535,-0.507128119468689,-0.859833836555481
0,1650776492,371268626,-6.249976125964392,2.2612517320524925,-61.14500775192388,-0.02001953125,-0.056640625,1.04443359375,-1.5869140625,-0.42724609375,-2.25830078125,-0.03690565750002861,-0.04468571022152901,-0.5068469047546387,-0.8600857257843018
0,1650776492,394567436,-6.040233823157994,2.209469506633687,-61.07620725641434,-0.02001953125,-0.4892578125,0.576171875,-12.20703125,-0.732421875,-3.173828125,-0.03558724746108055,-0.04334836080670357,-0.5064363479614258,-0.8604514002799988
0,1650776492,436008800,-5.575279794466778,2.3282744573871232,-60.87548848727518,-0.21630859375,0.2294921875,1.2490234375,20.3857421875,0.79345703125,-5.06591796875,-0.0316426083445549,-0.04212900623679161,-0.505046010017395,-0.8614826798439026
0,1650776492,456275247,-5.736314310754522,2.145425597550828,-60.868214335809114,0.07275390625,0.01806640625,0.65185546875,-1.5869140625,-4.45556640625,1.15966796875,-0.033664386719465256,-0.041463594883680344,-0.5050162076950073,-0.8614557981491089
0,1650776492,490937662,-5.420564483821765,2.1136470752202854,-61.14168827998725,0.10546875,0.11083984375,1.14697265625,-4.57763671875,-6.28662109375,10.498046875,-0.03133592754602432,-0.039908118546009064,-0.5071970820426941,-0.8603351712226868
0,1650776492,512232903,-5.310892990092516,1.9226395544204096,-61.37192029653004,0.02490234375,0.10107421875,1.02734375,-0.732421875,-2.9296875,13.7939453125,-0.03128402307629585,-0.03805290162563324,-0.5090439915657043,-0.8593297600746155
0,1650776492,555391493,-5.290670507507401,1.6273020679873524,-61.98683539731712,-0.09423828125,0.0625,0.90576171875,3.662109375,-7.50732421875,15.2587890625,-0.032255373895168304,-0.03592381998896599,-0.5137771368026733,-0.8565641045570374
0,1650776492,575825977,-5.0945177198283895,1.4017491579128445,-62.29056707951842,0.03466796875,-0.3115234375,0.67138671875,-10.6201171875,-3.47900390625,16.54052734375,-0.03171402961015701,-0.03344358876347542,-0.5161948800086975,-0.8552302718162537
0,1650776492,615933805,-4.400941891691214,1.2863597286312376,-63.05177117194883,-0.03955078125,0.04736328125,1.51025390625,0.8544921875,3.0517578125,16.05224609375,-0.02686162479221821,-0.02963687852025032,-0.5220978260040283,-0.8519473075866699
0,1650776492,641093236,-4.625220971485514,1.0880437986977423,-63.38672364884626,0.1220703125,0.068359375,0.74609375,3.96728515625,-6.53076171875,18.5546875,-0.029348326846957207,-0.029271045699715614,-0.5245954990386963,-0.8503420948982239
0,1650776492,675898374,-4.011036274052804,1.1807374698627489,-64.20268536785265,-0.24072265625,0.18994140625,0.8388671875,19.22607421875,-7.87353515625,16.7236328125,-0.024171436205506325,-0.027319410815835,-0.5307592749595642,-0.846737265586853
0,1650776492,692947655,-4.218606576703138,1.0338583071864442,-64.48429406733229,-0.1201171875,0.1162109375,0.79736328125,6.7138671875,-2.86865234375,13.3056640625,-0.02631930075585842,-0.027260778471827507,-0.5328345894813538,-0.8453705906867981
0,1650776492,716851695,-3.614126297420547,1.1275519607346232,-64.8545517920495,0.10986328125,-0.20849609375,1.6259765625,-14.892578125,8.60595703125,14.70947265625,-0.02134203352034092,-0.02520979940891266,-0.5356741547584534,-0.8437785506248474
0,1650776492,755791462,-4.1541330060328026,1.0066594266943958,-65.24852393356501,-0.1904296875,0.23974609375,0.7294921875,8.36181640625,-2.3193359375,8.72802734375,-0.025791214779019356,-0.02693300135433674,-0.5384842753410339,-0.8418101072311401
0,1650776492,775957523,-3.748659679728642,0.9081628694992285,-65.48910368670037,-0.0078125,0.05029296875,1.25,-12.3291015625,2.685546875,9.21630859375,-0.023224640637636185,-0.02435287833213806,-0.5403701066970825,-0.8407542705535889
0,1650776492,810618818,-4.027989230459599,0.6685421709728744,-65.74382193141766,0.01953125,0.1953125,1.1357421875,5.55419921875,-1.953125,5.67626953125,-0.02635154128074646,-0.02397126331925392,-0.5422460436820984,-0.8394642472267151
0,1650776492,836467450,-4.344482694238242,0.7752500562934249,-65.87855424298533,-0.044921875,0.2265625,1.056640625,-0.18310546875,5.126953125,6.2255859375,-0.028133854269981384,-0.02628331445157528,-0.5431315302848816,-0.838764488697052
0,1650776492,875845980,-4.721139879320942,0.9333100251976287,-66.14336750729589,0.01220703125,0.171875,0.93701171875,10.19287109375,-4.21142578125,7.26318359375,-0.03007335215806961,-0.029294349253177643,-0.5449256300926208,-0.8374326825141907
0,1650776492,896130795,-5.075187430703608,0.8631206000481977,-66.31203219866019,0.0166015625,0.21240234375,1.1298828125,2.5634765625,0.67138671875,6.65283203125,-0.0329497829079628,-0.030513716861605644,-0.5460897088050842,-0.8365221619606018
0,1650776492,935460108,-5.470581959113768,0.8976582519991605,-66.58018542547488,-0.00830078125,0.18017578125,0.96484375,1.89208984375,-1.28173828125,6.8359375,-0.03559473529458046,-0.03273315355181694,-0.5479236245155334,-0.8351294994354248
0,1650776492,957912209,-5.743440332492961,0.8453111485916539,-66.74534622979496,0.04736328125,0.19287109375,0.8564453125,-0.79345703125,2.50244140625,5.615234375,-0.03778520226478577,-0.033710964024066925,-0.5490680932998657,-0.8342422842979431
0,1650776492,996260474,-5.343128494767214,0.9775145826191282,-66.8246242354913,-0.20947265625,-0.60791015625,0.72607421875,-17.7001953125,0.18310546875,-2.13623046875,-0.034213706851005554,-0.03277849033474922,-0.5497097373008728,-0.834010899066925
0,1650776493,15395758,-5.266625253421194,1.0573118961357988,-66.77979770396851,-0.1611328125,0.23583984375,1.11962890625,14.7705078125,-0.48828125,-4.94384765625,-0.033286526799201965,-0.03297894448041916,-0.549375057220459,-0.8342611193656921
0,1650776493,36717942,-5.582553092159195,1.0656156986192418,-66.51391893014743,-0.2294921875,0.11767578125,0.80810546875,2.44140625,5.06591796875,-14.95361328125,-0.035626668483018875,-0.034471288323402405,-0.5473418235778809,-0.8354396224021912
0,1650776493,77850435,-5.208308671400802,1.4930575813368079,-65.85384944875739,-0.0732421875,0.05322265625,1.00341796875,4.69970703125,-2.9296875,-18.310546875,-0.03105878457427025,-0.035619981586933136,-0.5424646139144897,-0.8387483954429626
0,1650776493,98809187,-5.216267122444336,1.4893306459275082,-65.33664703423652,0.0166015625,0.07421875,1.07763671875,-2.44140625,-4.5166015625,-19.10400390625,-0.03129521384835243,-0.0354895181953907,-0.5386724472045898,-0.8411855101585388
0,1650776493,137437010,-5.14777014346604,1.839496301984079,-64.5553758460246,-0.08740234375,0.09814453125,1.0283203125,8.23974609375,-1.15966796875,-19.8974609375,-0.029399719089269638,-0.037536390125751495,-0.5328062176704407,-0.8448929786682129
0,1650776493,150678358,-5.1744283717965995,1.9542932123551875,-64.06302848989341,-0.109375,-0.2529296875,0.6015625,2.62451171875,-4.0283203125,-18.798828125,-0.029226453974843025,-0.03838071972131729,-0.5291153192520142,-0.8471775650978088
0,1650776493,197143429,-5.170947109754009,1.911271771763981,-63.542513433625075,-0.01416015625,0.123046875,0.744140625,18.4326171875,-12.5732421875,-7.32421875,-0.029572369530797005,-0.03791295364499092,-0.5252805948257446,-0.84956955909729
0,1650776493,216445788,-5.319546839770922,1.7167535337307187,-63.312267756703946,0.11328125,0.15673828125,0.8359375,-7.8125,8.48388671875,-9.21630859375,-0.03164239600300789,-0.03708984702825546,-0.523604154586792,-0.8505656123161316
0,1650776493,251141515,-5.142867775189264,1.8477574157852095,-63.042953397730344,0.04931640625,0.10400390625,0.77001953125,8.11767578125,4.2724609375,-6.40869140625,-0.029818430542945862,-0.03718413785099983,-0.5216071009635925,-0.8518534302711487
0,1650776493,275986090,-5.237800574463271,1.9265560275791773,-62.92936052164386,0.01171875,0.11376953125,0.89208984375,-3.2958984375,-2.38037109375,-3.72314453125,-0.030202453956007957,-0.03817154839634895,-0.5206987857818604,-0.852351725101471
0,1650776493,315440046,-5.370010411793092,1.857864815096359,-62.80277662575602,0.04296875,0.2021484375,0.9052734375,6.2255859375,2.9296875,-3.5400390625,-0.03154098615050316,-0.03822702914476395,-0.5197416543960571,-0.852884829044342
0,1650776493,337095295,-5.337403515582274,1.8166727979856583,-62.727207412778995,0.00390625,0.06787109375,0.8857421875,1.40380859375,-1.28173828125,-3.60107421875,-0.03151049464941025,-0.03775205463171005,-0.519207239151001,-0.8532325029373169
0,1650776493,355484640,-4.978325529875894,1.7889275023600086,-62.65891918145721,0.02734375,-0.224609375,1.07568359375,-7.62939453125,-1.0986328125,-2.01416015625,-0.02898412011563778,-0.035901203751564026,-0.518825352191925,-0.853634238243103
0,1650776493,396568843,-5.105565123924062,1.7995744866155892,-62.54074324843764,-0.140625,0.103515625,0.82666015625,-3.0517578125,0.06103515625,-5.126953125,-0.029921332374215126,-0.03652568161487579,-0.517900288105011,-0.8541370034217834
0,1650776493,436356151,-4.883325709370657,1.887659380916424,-62.38251508612513,0.0205078125,0.109375,0.93310546875,3.662109375,-2.5634765625,-1.28173828125,-0.02791563980281353,-0.03613874316215515,-0.5167557597160339,-0.8549141883850098
0,1650776493,455368872,-4.914958876737924,1.9419354791559302,-62.344388970178116,-0.16259765625,0.1123046875,0.90234375,-4.82177734375,7.14111328125,-2.9296875,-0.027918513864278793,-0.03667667880654335,-0.5164398550987244,-0.855082094669342
0,1650776493,476493004,-4.896542125414631,2.034754761768642,-62.30048451419328,-0.0146484375,0.09814453125,0.982421875,-6.28662109375,-2.25830078125,-1.708984375,-0.02737603895366192,-0.037275198847055435,-0.5160812139511108,-0.8552902340888977
0,1650776493,491093968,-5.110720209200129,1.9679234951741826,-62.28396228659101,0.08544921875,0.20654296875,1.06884765625,6.77490234375,0.6103515625,-0.42724609375,-0.029281746596097946,-0.037737179547548294,-0.5159148573875427,-0.8553072214126587
0,1650776493,535678833,-5.528080199094227,1.9860649044965595,-62.1983936766691,-0.06884765625,0.14453125,0.98095703125,-1.03759765625,-3.60107421875,-2.44140625,-0.03234449774026871,-0.03972708061337471,-0.5151273012161255,-0.8555813431739807
0,1650776493,559812351,-5.688469262505405,1.8882578762424465,-62.15615578684174,-0.02880859375,0.15478515625,0.9970703125,-4.69970703125,-1.953125,-2.01416015625,-0.03399749845266342,-0.0397060364484787,-0.5147995352745056,-0.8557155132293701
0,1650776493,596065620,-6.00118819299397,1.727974360598286,-62.17743865629549,0.03271484375,0.185546875,1.080078125,-3.47900390625,-2.3193359375,1.46484375,-0.0370471365749836,-0.039922069758176804,-0.5149222016334534,-0.8555049896240234
0,1650776493,610820988,-6.1066177123618175,1.680534961552845,-62.223337527517984,0.044921875,0.15771484375,0.984375,-2.8076171875,5.615234375,2.197265625,-0.03803190588951111,-0.040057215839624405,-0.5152499079704285,-0.8552582859992981
0,1650776493,653857528,-6.377229807277723,1.754121178514741,-62.4090572012398,-0.08251953125,0.14599609375,0.98046875,-2.86865234375,5.06591796875,4.150390625,-0.03965197503566742,-0.041886813938617706,-0.516503632068634,-0.8543403148651123
0,1650776493,675452743,-6.362412138760203,1.9268360653351477,-62.49198252795292,-0.052734375,0.123046875,0.9375,-5.126953125,-1.77001953125,4.33349609375,-0.03872956335544586,-0.043134383857250214,-0.5170431733131409,-0.8539940118789673
0,1650776493,696496873,-6.238478783157145,2.004259888115239,-62.562333476404056,-0.0908203125,0.0986328125,1.02783203125,-2.01416015625,-2.01416015625,3.72314453125,-0.03742899000644684,-0.04317453131079674,-0.5175763368606567,-0.8537269234657288
0,1650776493,736177906,-6.103575716860223,1.9182656720306628,-62.73347752643706,-0.07080078125,0.060546875,1.07763671875,-3.173828125,-0.67138671875,3.662109375,-0.03675088658928871,-0.04198012128472328,-0.51894211769104,-0.8529866337776184
0,1650776493,755978166,-6.011155146540311,1.8027994031208932,-62.80690889020387,0.0126953125,0.09521484375,0.9970703125,2.8076171875,-2.25830078125,3.90625,-0.0365612618625164,-0.040726374834775925,-0.5195758938789368,-0.8526697158813477
0,1650776493,796342896,-5.976191408179016,1.5447723586375595,-62.946497466271424,0.0400390625,0.08984375,1.12353515625,-1.64794921875,-0.732421875,2.74658203125,-0.037427011877298355,-0.03869529813528061,-0.5207438468933105,-0.8520139455795288
0,1650776493,813203084,-5.906404804108057,1.6295034166125064,-62.99890550777293,-0.080078125,0.078125,1.08544921875,-1.46484375,-4.33349609375,1.953125,-0.03650433570146561,-0.03902432322502136,-0.5211191177368164,-0.8518095016479492
0,1650776493,835524557,-5.919024005486479,1.465747069940512,-63.028063585339716,-0.0087890625,0.0966796875,0.9326171875,-0.18310546875,5.2490234375,0.67138671875,-0.037334948778152466,-0.03787499666213989,-0.521404504776001,-0.8516507744789124
0,1650776493,872736986,-5.540604631597915,1.6733524840320477,-63.11742295025099,-0.02880859375,-0.33447265625,0.849609375,-19.47021484375,4.2724609375,2.0751953125,-0.033546097576618195,-0.03772103786468506,-0.5221032500267029,-0.851387083530426
0,1650776493,896761412,-5.560969694381955,1.783594405278698,-63.213557862818924,-0.1767578125,0.20654296875,0.79541015625,17.88330078125,-10.68115234375,6.4697265625,-0.03316152095794678,-0.03865998610854149,-0.5227632522583008,-0.8509549498558044
0,1650776493,916130685,-5.498578477634827,1.682039951047775,-63.27617020694043,-0.08251953125,0.10791015625,0.98974609375,-2.9296875,-1.5869140625,2.197265625,-0.03314206004142761,-0.03763998672366142,-0.5232923030853271,-0.8506762385368347
0,1650776493,956852864,-5.5169679082014405,1.7128942634062498,-63.43518384100749,-0.052734375,0.1826171875,0.962890625,4.39453125,-0.9765625,3.662109375,-0.03308466076850891,-0.03799876198172569,-0.5244531035423279,-0.8499473333358765
0,1650776493,971613897,-5.435611817450126,1.7190642721042986,-63.48696350510536,-0.0576171875,0.0888671875,1.0458984375,0.54931640625,-4.8828125,2.86865234375,-0.032435886561870575,-0.037686787545681,-0.5248613357543945,-0.8497343063354492
0,1650776494,10905480,-5.29440832853069,1.3448794020577317,-63.597298380957746,0.07421875,0.0576171875,0.93994140625,0.67138671875,-0.18310546875,2.38037109375,-0.03307348117232323,-0.034299224615097046,-0.5258764624595642,-0.8492254614830017
0,1650776494,31976491,-5.217914051807956,1.3571101364271088,-63.619919967488826,0.04541015625,-0.06640625,1.01513671875,-2.8076171875,-0.3662109375,1.15966796875,-0.032443635165691376,-0.03404517099261284,-0.5260621309280396,-0.8491448163986206
0,1650776494,51041628,-4.677002343130673,1.323087149902277,-63.62621057171441,0.15625,-0.32080078125,1.166015625,-19.775390625,3.2958984375,0.3662109375,-0.028589792549610138,-0.03131116181612015,-0.5262756943702698,-0.8492562770843506
0,1650776494,96658678,-4.8645166490569105,1.5507057653138907,-63.624441552719375,-0.0859375,0.1220703125,0.8662109375,-9.765625,5.7373046875,0.79345703125,-0.028932997956871986,-0.03385758399963379,-0.5261259078979492,-0.8492398262023926
0,1650776494,116151730,-4.720219938217106,1.6960852745805544,-63.65244532831643,-0.08740234375,0.087890625,1.1123046875,-1.46484375,-3.23486328125,1.77001953125,-0.027186451479792595,-0.03427837789058685,-0.5263218283653259,-0.8491591215133667
0,1650776494,156580493,-4.718299374399863,1.3573092791300971,-63.72856095642705,0.03759765625,0.11181640625,0.921875,-2.13623046875,3.7841796875,1.220703125,-0.02871006727218628,-0.031779952347278595,-0.527010440826416,-0.8487789630889893
0,1650776494,175434393,-4.723008789832587,1.2899467518842578,-63.75993884547409,0.0107421875,0.10546875,1.0419921875,0.67138671875,-2.99072265625,2.3193359375,-0.029046660289168358,-0.031310904771089554,-0.5272656679153442,-0.8486265540122986
0,1650776494,216716073,-4.3639952640364985,1.3643319942573395,-63.81435496259158,-0.1435546875,0.2255859375,1.36181640625,11.04736328125,3.173828125,2.197265625,-0.026030633598566055,-0.030221834778785706,-0.5277392268180847,-0.8484694361686707
0,1650776494,236667696,-4.62279625433016,1.270663100144902,-63.842051379675986,-0.01416015625,0.12890625,0.85302734375,6.89697265625,-4.150390625,-0.30517578125,-0.028371362015604973,-0.030727403238415718,-0.5279076099395752,-0.848271369934082
0,1650776494,256492436,-4.280666102388697,1.3174224684811036,-63.852323984187684,0.0234375,-0.3388671875,1.017578125,-20.44677734375,10.92529296875,-0.244140625,-0.02562021277844906,-0.029499400407075882,-0.5280576348304749,-0.8483092784881592
0,1650776494,277383186,-4.245596069208443,1.5593983549714956,-63.8514770407306,-0.28955078125,0.13720703125,1.33642578125,9.33837890625,-2.25830078125,0.732421875,-0.02424415573477745,-0.0311279334127903,-0.5279799699783325,-0.848339855670929
0,1650776494,312979223,-4.539654069110886,1.4355827134099142,-63.924006819526966,0.01025390625,0.05322265625,0.90478515625,-8.4228515625,-1.708984375,1.52587890625,-0.026972411200404167,-0.03158382326364517,-0.5284789800643921,-0.8479297757148743
0,1650776494,351531940,-4.564373377490809,1.4859773432101493,-64.04754445104498,-0.0595703125,0.13427734375,1.048828125,4.45556640625,2.86865234375,2.99072265625,-0.02688794583082199,-0.032099489122629166,-0.5293681621551514,-0.8473582863807678
0,1650776494,375654737,-4.808544529469126,1.4632509559639897,-64.12656973974204,-0.06396484375,0.208984375,0.92822265625,8.4228515625,-4.21142578125,4.2724609375,-0.028775785118341446,-0.03307931497693062,-0.5298911333084106,-0.8469316363334656
0,1650776494,391247246,-5.12538505223497,1.4194632535252727,-64.21977450115602,-0.0703125,0.177734375,0.92724609375,-3.84521484375,1.0986328125,2.197265625,-0.03129236772656441,-0.03424640744924545,-0.5305032730102539,-0.8464125990867615
0,1650776494,411359609,-5.285558110913646,1.3136777105469382,-64.26866499523499,0.0888671875,0.1953125,1.05517578125,2.685546875,0.42724609375,2.197265625,-0.03295140340924263,-0.03422117233276367,-0.5308578014373779,-0.8461284041404724
0,1650776494,430620911,-5.439434162064394,1.2906567713928219,-64.29538469526807,0.0234375,0.1572265625,1.06884765625,0.79345703125,0.67138671875,1.03759765625,-0.034186288714408875,-0.0347721092402935,-0.5310179591178894,-0.8459563255310059
0,1650776494,475935393,-5.79020279575863,1.4455786952602279,-64.32489111248252,-0.076171875,0.21240234375,1.06494140625,4.2724609375,0.6103515625,1.0986328125,-0.03604685887694359,-0.03754938393831253,-0.5310604572296143,-0.845733642578125
0,1650776494,495744229,-6.010998479076224,1.5052758292666086,-64.36469062477619,-0.076171875,0.22705078125,0.923828125,-0.1220703125,6.53076171875,1.15966796875,-0.037385594099760056,-0.03902573138475418,-0.5312541127204895,-0.8454870581626892
0,1650776494,531232231,-6.369967608642707,1.6353005396705547,-64.48724470905373,-0.0185546875,0.1787109375,0.99560546875,-0.79345703125,-3.11279296875,3.11279296875,-0.039385322481393814,-0.041690193116664886,-0.5319714546203613,-0.8448178172111511
0,1650776494,550937928,-6.414423602403027,1.4802450002275103,-64.54495980754034,0.04443359375,0.1240234375,1.1044921875,2.44140625,4.33349609375,2.50244140625,-0.04041412100195885,-0.040774933993816376,-0.5324544906616211,-0.844509482383728
0,1650776494,595369957,-6.751763657302195,1.3407237655563078,-64.6545706833407,-0.0244140625,0.1328125,1.013671875,0.1220703125,1.0986328125,2.01416015625,-0.04351018741726875,-0.04135672375559807,-0.5332081317901611,-0.8438516855239868
0,1650776494,615574291,-6.692950605906508,1.1587728621524571,-64.69755989397676,0.02197265625,0.083984375,0.8896484375,-3.47900390625,1.8310546875,1.89208984375,-0.04391062259674072,-0.03976072371006012,-0.5336334109306335,-0.8436387777328491
0,1650776494,644212174,-6.589309315440734,1.1435115515040042,-64.73087755674808,0.01220703125,0.1142578125,0.96630859375,0.30517578125,1.220703125,0.9765625,-0.043207403272390366,-0.03917835280299187,-0.5339215993881226,-0.8435199856758118
0,1650776494,677984774,-6.742647916081167,1.0504131916306743,-64.73619144392235,0.0029296875,0.205078125,1.052734375,-2.0751953125,0.3662109375,-0.67138671875,-0.0447688065469265,-0.039210084825754166,-0.5339522957801819,-0.8434177041053772
0,1650776494,696938133,-6.9558923983844885,1.1775512933366437,-64.72985302837259,-0.0888671875,0.185546875,0.96240234375,-1.77001953125,-0.732421875,-0.244140625,-0.045747123658657074,-0.041136108338832855,-0.5337691903114319,-0.8433893322944641
0,1650776494,714324509,-7.098877286016828,1.2274634343050408,-64.75862178515668,-0.009765625,0.181640625,0.93798828125,-3.11279296875,4.94384765625,1.220703125,-0.04655592516064644,-0.04218081757426262,-0.5339038968086243,-0.8432081341743469
0,1650776494,755559916,-7.231791486604807,1.4076896082217574,-64.84573401783102,-0.04248046875,0.16015625,0.9736328125,-4.150390625,2.0751953125,1.15966796875,-0.04665888100862503,-0.04416043311357498,-0.5344020128250122,-0.8427854776382446
0,1650776494,771641173,-7.055394594213235,1.470474414619807,-64.86055552832994,-0.03076171875,0.1005859375,0.99560546875,-3.23486328125,-6.4697265625,1.77001953125,-0.04506227374076843,-0.04380493238568306,-0.5345462560653687,-0.8427994251251221
0,1650776494,818305704,-6.898034719698957,1.2926082845047413,-64.89862700276359,-0.06298828125,0.087890625,0.9541015625,-1.220703125,-3.11279296875,0.8544921875,-0.044722773134708405,-0.04177866131067276,-0.5349746942520142,-0.8426486253738403
0,1650776494,836351361,-6.778330104965783,1.3487161541022805,-64.90679590901094,-0.0498046875,0.11669921875,1.0283203125,2.0751953125,0.1220703125,0.30517578125,-0.04357701539993286,-0.04163515940308571,-0.5350506901741028,-0.8426674604415894
0,1650776494,850595676,-6.700194875294953,1.2829844412424876,-64.90077851235215,0.078125,0.0927734375,0.9306640625,-2.5634765625,-2.25830078125,0.18310546875,-0.04331216216087341,-0.04078507795929909,-0.5350664854049683,-0.8427126407623291
0,1650776494,898268296,-6.381004340567801,1.1940736276606103,-64.8684443968213,-0.04736328125,0.08447265625,0.9375,0.3662109375,1.708984375,-1.15966796875,-0.04139159247279167,-0.03862939402461052,-0.5349811315536499,-0.8429648876190186
0,1650776494,936689426,-5.707061037426181,1.2902631817419,-64.80389910916469,-0.30126953125,0.1962890625,1.07080078125,14.58740234375,2.38037109375,-1.40380859375,-0.03600358963012695,-0.03616941720247269,-0.534683883190155,-0.8435097932815552
0,1650776494,955862118,-5.567272678325407,1.2136139451023704,-64.7879301268852,0.03662109375,-0.84814453125,0.5107421875,-21.97265625,-9.6435546875,-2.0751953125,-0.03533773124217987,-0.034948352724313736,-0.5346413850784302,-0.8436163663864136
0,1650776494,979772910,-5.418917554458145,1.336285850143092,-64.76338925719735,-0.25146484375,0.31494140625,0.8837890625,19.95849609375,2.0751953125,-1.0986328125,-0.03367973864078522,-0.03515150025486946,-0.5344563722610474,-0.8437929749488831
0,1650776495,20438479,-5.308596765870922,1.3255177367514495,-64.73678567038014,0.0712890625,0.0986328125,0.97900390625,-10.7421875,-0.67138671875,0.18310546875,-0.03292570635676384,-0.03455006331205368,-0.5342983603477478,-0.8439475893974304
0,1650776495,38065725,-5.07586788829967,1.2548942210637524,-64.72577540543809,-0.00439453125,0.06298828125,1.052734375,2.13623046875,-2.9296875,-0.1220703125,-0.03154465928673744,-0.032941997051239014,-0.5343130826950073,-0.8440552949905396
0,1650776495,71010881,-5.082187093942401,1.3463678496882656,-64.56178256346608,-0.1123046875,0.06884765625,1.03515625,-0.9765625,-4.21142578125,-7.6904296875,-0.03121213987469673,-0.03360017389059067,-0.5330680012702942,-0.8448286056518555
0,1650776495,95478422,-5.148693072777638,1.2404420743885343,-64.37971704095021,0.00048828125,0.10546875,0.94775390625,0.6103515625,-1.03759765625,-10.19287109375,-0.0322485975921154,-0.033077940344810486,-0.5317462086677551,-0.8456428050994873
0,1650776495,111490013,-5.140101548575409,1.1840742307157115,-64.03438267651437,-0.0146484375,0.1005859375,1.04931640625,-0.48828125,0.244140625,-15.5029296875,-0.03254532441496849,-0.03252440690994263,-0.5292192697525024,-0.8472367525100708
0,1650776495,131743371,-5.140453730204487,1.3524873790194796,-63.721648804987,-0.0576171875,0.11767578125,1.03515625,-2.3193359375,-0.244140625,-16.90673828125,-0.03186099976301193,-0.03368362411856651,-0.5268404483795166,-0.8486986756324768
0,1650776495,177572009,-5.231933868853053,1.6517747425052138,-63.04022132206234,-0.12255859375,0.21630859375,1.14013671875,6.591796875,-0.67138671875,-13.24462890625,-0.031375523656606674,-0.03613319620490074,-0.5216379165649414,-0.8518238663673401
0,1650776495,196133422,-5.503541036953664,1.6462886064978128,-62.81916224957487,-0.08935546875,0.2373046875,0.82421875,2.25830078125,-3.5400390625,-11.3525390625,-0.03349141404032707,-0.03726420924067497,-0.5199090838432312,-0.8527510166168213
0,1650776495,218543057,-5.613290650971545,1.7604085810891494,-62.684429938007206,-0.13427734375,0.130859375,0.9248046875,-2.44140625,3.35693359375,-6.34765625,-0.0338345468044281,-0.038570836186409,-0.5188208222389221,-0.8533419966697693
0,1650776495,250681537,-5.6021813482865195,1.8459194545682414,-62.4844488292984,-0.12890625,-0.09033203125,0.91650390625,-1.953125,-4.08935546875,-3.47900390625,-0.03343197703361511,-0.03909844532608986,-0.5172972679138184,-0.8542582988739014
0,1650776495,276013836,-5.268632475263532,1.8070706192296782,-62.43762788253796,0.166015625,-0.283203125,1.52099609375,-4.57763671875,8.85009765625,-2.01416015625,-0.03113638050854206,-0.03729045391082764,-0.5170758962631226,-0.8545597791671753
0,1650776495,295690764,-5.60456465742003,1.8391759234233231,-62.39479576625281,-0.05810546875,0.12255859375,0.72265625,20.1416015625,-6.591796875,-0.30517578125,-0.03351081162691116,-0.03903277590870857,-0.5166309475898743,-0.8546613454818726
0,1650776495,336228873,-5.441906263657115,1.7297092286474693,-62.30244477848507,0.015625,-0.0048828125,0.96875,-4.57763671875,1.5869140625,-2.3193359375,-0.0328226275742054,-0.037457212805747986,-0.5160433053970337,-0.8551134467124939
0,1650776495,355572193,-5.390171422675677,1.7052654757118746,-62.26406594553877,0.01708984375,0.08349609375,1.0537109375,0.18310546875,-2.44140625,-0.9765625,-0.032559312880039215,-0.03703107312321663,-0.515783965587616,-0.8552985191345215
0,1650776495,391815029,-5.290916394317521,1.6966057563396504,-62.14117035180273,0.0869140625,0.13330078125,1.03125,-1.89208984375,5.7373046875,-4.150390625,-0.0318966880440712,-0.03648553788661957,-0.5149018168449402,-0.8558782339096069
0,1650776495,415436950,-5.279936865226726,1.8684306908555457,-62.08346891369446,-0.0869140625,0.02783203125,0.97021484375,2.99072265625,3.7841796875,-3.173828125,-0.031059807166457176,-0.03770282864570618,-0.5144031047821045,-0.8561561107635498
0,1650776495,455688908,-4.914667739924552,2.1162434008785365,-62.05487774182879,-0.27685546875,0.18896484375,0.94775390625,21.91162109375,-7.9345703125,2.38037109375,-0.02722470462322235,-0.03790620341897011,-0.514208197593689,-0.8563948273658752
0,1650776495,475427438,-5.066413625827902,2.005604154721262,-62.062431931050824,-0.11572265625,-0.048828125,0.6943359375,-0.1220703125,-4.33349609375,-1.77001953125,-0.028854018077254295,-0.03776297718286514,-0.5142595171928406,-0.8563169240951538
0,1650776495,497567338,-4.894339389407302,2.0271277883432646,-62.041599854082286,-0.056640625,-0.01513671875,1.10791015625,-7.75146484375,-1.46484375,-0.79345703125,-0.02747802436351776,-0.037146423012018204,-0.514151394367218,-0.8564540147781372
0,1650776495,531191647,-5.183892452665299,1.9242427278846586,-62.00781090825823,-0.06005859375,0.14501953125,0.90625,-0.18310546875,-2.86865234375,-1.220703125,-0.03011590987443924,-0.03766842186450958,-0.5138460993766785,-0.856525719165802
0,1650776495,551922169,-5.054915429247009,1.8336635338762997,-61.967546943101006,-0.02099609375,0.04931640625,0.896484375,-0.9765625,0.8544921875,-2.197265625,-0.029571834951639175,-0.03640318289399147,-0.5136237144470215,-0.8567327260971069
0,1650776495,574986027,-4.934948279117613,1.8782253955687553,-61.920357166125385,-0.04296875,0.0791015625,1.1513671875,-1.708984375,-2.9296875,-2.3193359375,-0.02848958596587181,-0.03618660941720009,-0.5132911205291748,-0.8569779396057129
0,1650776495,615758926,-4.9026043451898405,1.6689264147281737,-61.776192363313925,0.0419921875,0.0634765625,1.00732421875,-3.0517578125,2.0751953125,-3.662109375,-0.029230734333395958,-0.03444097563624382,-0.5123042464256287,-0.8576151132583618
0,1650776495,635584658,-4.923310917432381,1.73463400848246,-61.70911307547523,-0.072265625,0.06396484375,0.98876953125,1.220703125,4.638671875,-3.96728515625,-0.029111826792359352,-0.03500789403915405,-0.5117704272270203,-0.8579149842262268
0,1650776495,677229386,-5.3971804774245795,1.940770931902443,-61.64891861831991,-0.09326171875,0.17431640625,0.9638671875,2.13623046875,2.74658203125,-1.953125,-0.03175700455904007,-0.03864891827106476,-0.5110831260681152,-0.8580744862556458
0,1650776495,695703981,-5.534449777382088,1.9207042630077689,-61.62124952199219,-0.0224609375,0.1201171875,1.05224609375,-0.6103515625,-3.5400390625,-1.46484375,-0.03288404271006584,-0.03910306468605995,-0.5108380317687988,-0.8581574559211731
0,1650776495,735382038,-5.826922319623442,1.8983674099877115,-61.561000423323506,0.08154296875,0.14404296875,0.9365234375,5.2490234375,0.91552734375,-1.46484375,-0.035195209085941315,-0.040221165865659714,-0.5102955102920532,-0.8583368062973022
0,1650776495,755739046,-6.077600507446665,1.9602260854229898,-61.53833102546823,-0.0302734375,0.17626953125,1.01025390625,2.8076171875,2.86865234375,-1.77001953125,-0.03680483251810074,-0.041792914271354675,-0.5100072622299194,-0.858365535736084
0,1650776495,795679861,-6.2605163885141915,1.6934805179075465,-61.48566343677827,-0.01318359375,0.07470703125,0.8828125,3.0517578125,-2.62451171875,-1.5869140625,-0.03938427194952965,-0.04059300571680069,-0.509673535823822,-0.8585068583488464
0,1650776495,833860857,-6.401319030706712,1.5384477101878336,-61.41419916749242,0.08203125,0.13818359375,0.935546875,5.9814453125,0.67138671875,-1.46484375,-0.04115545377135277,-0.0400332547724247,-0.5091624855995178,-0.8587532639503479
0,1650776495,855743727,-6.238641853923579,1.5863532696441278,-61.340877086752336,0.04248046875,-0.29638671875,0.83984375,-7.9345703125,0.0,-2.99072265625,-0.039748262614011765,-0.03964368253946304,-0.5086467266082764,-0.8591431975364685
0,1650776495,902048729,-6.1494225078902875,1.80047457748215,-61.20419134108204,0.0751953125,-0.296875,0.6748046875,1.77001953125,-5.4931640625,-1.953125,-0.03817509114742279,-0.04080607369542122,-0.5075519680976868,-0.8598073124885559
0,1650776495,916257235,-6.112064788224903,1.8912738316478301,-61.173537452087025,-0.00830078125,0.24560546875,1.03564453125,-6.4697265625,12.39013671875,-2.44140625,-0.03750250115990639,-0.04131118208169937,-0.5072923302650452,-0.8599660396575928
0,1650776495,956003005,-5.513898165056342,1.9269545264285652,-61.10116476764157,0.1689453125,-0.3798828125,1.25439453125,-20.20263671875,3.96728515625,-1.0986328125,-0.03287912905216217,-0.038909390568733215,-0.5069422125816345,-0.8604735136032104
0,1650776495,995700550,-5.829775631149214,2.0706508209516437,-61.07067480318663,-0.0908203125,0.09130859375,0.779296875,-0.18310546875,-1.77001953125,-1.40380859375,-0.03462451696395874,-0.04137522727251053,-0.5065380930900574,-0.8605279326438904
0,1650776496,15983029,-5.69338358361323,2.042652167996469,-61.046475442957274,-0.1748046875,0.03857421875,1.0234375,-2.62451171875,0.79345703125,-2.01416015625,-0.03373297303915024,-0.040555115789175034,-0.5064178705215454,-0.8606733083724976
0,1650776496,56511698,-5.585651009834619,1.8914170521769889,-60.98641758958535,-0.01318359375,0.126953125,0.98681640625,-4.638671875,-2.13623046875,-1.28173828125,-0.03361455723643303,-0.03892657905817032,-0.5060715079307556,-0.8609567284584045
0,1650776496,95438119,-5.440261468727612,1.871744186376648,-60.87856890259085,-0.0185546875,0.2451171875,1.09423828125,-0.91552734375,1.40380859375,-3.60107421875,-0.03264518082141876,-0.03810608386993408,-0.5053184032440186,-0.8614728450775146
0,1650776496,111040612,-5.612635379698046,1.891020474318305,-60.81760946424849,-0.072265625,0.19482421875,1.0576171875,-1.89208984375,0.42724609375,-2.99072265625,-0.033876534551382065,-0.03899291157722473,-0.504793643951416,-0.8616933226585388
0,1650776496,136365229,-5.363395373581935,1.8593403494004934,-60.78617010349892,-0.02978515625,0.06982421875,0.89404296875,-6.16455078125,5.43212890625,-1.89208984375,-0.03215252235531807,-0.0376480296254158,-0.5046542882919312,-0.8619007468223572
0,1650776496,175622507,-4.954528723920747,1.93774003545825,-60.77108904581153,0.1552734375,0.06103515625,0.9970703125,2.50244140625,-1.89208984375,0.30517578125,-0.028735635802149773,-0.036432649940252304,-0.5046406984329224,-0.8620816469192505
0,1650776496,195763382,-4.829914910721626,1.9831560976837803,-60.747531723364155,-0.01513671875,-0.17724609375,0.7998046875,-5.2490234375,-0.1220703125,0.6103515625,-0.027605079114437103,-0.03621957451105118,-0.5044849514961243,-0.8622186779975891
0,1650776496,237351053,-4.847350249238553,2.01991766990067,-60.66047413220318,0.044921875,0.0654296875,0.8251953125,12.63427734375,-6.40869140625,-2.38037109375,-0.02760179713368416,-0.036551736295223236,-0.5038096904754639,-0.8625994920730591
0,1650776496,258182025,-4.959384988420626,1.9528526827705495,-60.6207907331254,0.11279296875,0.10986328125,0.8369140625,-8.6669921875,1.5869140625,-1.46484375,-0.028753384947776794,-0.03652994707226753,-0.5035019516944885,-0.8627426028251648
0,1650776496,296870393,-4.793093360906087,1.9376681050285534,-60.489282270845976,0.0390625,0.14892578125,1.0400390625,4.2724609375,-2.197265625,-3.23486328125,-0.027609197422862053,-0.03565334901213646,-0.502569854259491,-0.8633598685264587
0,1650776496,322502570,-4.935665022093641,1.840581875175288,-60.423787586894726,0.03955078125,0.2607421875,0.9345703125,-2.0751953125,2.197265625,-3.72314453125,-0.029130470007658005,-0.03553112968802452,-0.5020701289176941,-0.8636056184768677
0,1650776496,337391733,-5.058083356361426,1.9554957525359329,-60.35676977075856,-0.2109375,0.24951171875,1.111328125,1.40380859375,3.0517578125,-4.2724609375,-0.029569949954748154,-0.036915458738803864,-0.501480221748352,-0.8638752102851868
0,1650776496,375726332,-5.45577410899318,2.173621258774875,-60.3475353550007,-0.1201171875,0.17626953125,1.0537109375,0.42724609375,-0.18310546875,0.42724609375,-0.03161405026912689,-0.04029563441872597,-0.5011839270591736,-0.8638237714767456
0,1650776496,398147551,-5.622475974744742,2.1430269204916836,-60.37184399825678,-0.01025390625,0.197265625,1.06689453125,-0.732421875,-0.6103515625,0.91552734375,-0.032996226102113724,-0.04080132022500038,-0.5013218522071838,-0.8636682629585266
0,1650776496,416996811,-5.795679326812511,2.07787481321599,-60.3977577359678,-0.0205078125,0.15966796875,0.96923828125,2.5634765625,-5.06591796875,2.25830078125,-0.034578241407871246,-0.04107635095715523,-0.5014849901199341,-0.8634986281394958
0,1650776496,450911462,-5.556075436954817,1.9179794444157567,-60.476065854802,-0.05712890625,-0.39306640625,0.791015625,-12.20703125,-2.50244140625,2.197265625,-0.03344805911183357,-0.03884676843881607,-0.5022304654121399,-0.8632130026817322
0,1650776496,471941031,-5.446191780474475,1.9478482885430457,-60.52400012239715,-0.197265625,0.18359375,1.54248046875,10.07080078125,-2.86865234375,2.38037109375,-0.032472871243953705,-0.0386035330593586,-0.5026156306266785,-0.8630370497703552
0,1650776496,515646449,-5.419850302166675,1.9081375687085915,-60.689673190904976,-0.0361328125,-0.03515625,0.8828125,-3.47900390625,4.638671875,2.38037109375,-0.03239389881491661,-0.03823607414960861,-0.5038887858390808,-0.8623135685920715
0,1650776496,535549559,-5.3479484738871275,1.8544456650865329,-60.73769625095934,0.009765625,0.10986328125,1.04248046875,5.06591796875,-3.72314453125,2.86865234375,-0.03207382559776306,-0.03752965107560158,-0.5042967796325684,-0.862118124961853
0,1650776496,577464661,-5.236969852705468,1.7888138437433514,-60.86296875052654,0.0234375,0.09912109375,0.93505859375,4.150390625,-0.244140625,3.47900390625,-0.031488481909036636,-0.03658231347799301,-0.5053022503852844,-0.8615914583206177
0,1650776496,621009627,-5.277454091463426,2.020272199407276,-61.03599793277048,-0.07373046875,0.04443359375,1.04248046875,-2.13623046875,-1.40380859375,3.90625,-0.030711527913808823,-0.03854596987366676,-0.506492555141449,-0.8608347177505493
0,1650776496,636192302,-5.206338161825253,1.9726241594270324,-61.09241529531478,-0.1181640625,0.05517578125,1.0615234375,-0.1220703125,-2.74658203125,3.11279296875,-0.030369820073246956,-0.03788897395133972,-0.5069600939750671,-0.8606007099151611
0,1650776496,671206404,-5.225956172668822,1.8932727291971168,-61.23111594679023,-0.1044921875,0.0693359375,0.97265625,2.197265625,-5.31005859375,3.35693359375,-0.03082386776804924,-0.037417709827423096,-0.508027970790863,-0.8599752187728882
0,1650776496,693289918,-5.267288208657508,1.742500785580728,-61.2884075735483,-0.046875,0.0732421875,0.9775390625,3.35693359375,-2.3193359375,3.173828125,-0.031785912811756134,-0.03648633882403374,-0.5085069537162781,-0.859697163105011
0,1650776496,731337598,-5.197397444201706,1.5349642069894212,-61.36123788066814,0.0068359375,0.091796875,1.146484375,-0.54931640625,-2.197265625,1.64794921875,-0.03216264769434929,-0.03464081510901451,-0.5091592073440552,-0.8593734502792358
0,1650776496,767074790,-5.382806344316288,1.5019618001369774,-61.38372286341583,-0.0380859375,0.12353515625,1.02685546875,0.244140625,1.15966796875,0.48828125,-0.0336930938065052,-0.03522390127182007,-0.5092846751213074,-0.8592166900634766
0,1650776496,795909253,-5.6067708085219445,1.4182279497808523,-61.38874305245579,-0.10009765625,0.1123046875,1.0556640625,0.244140625,2.3193359375,0.6103515625,-0.03574366122484207,-0.03559345752000809,-0.5092880129814148,-0.8591165542602539
0,1650776496,835911125,-5.72969457678831,1.6504695360435069,-61.46705117128998,-0.1240234375,0.060546875,0.9765625,-2.25830078125,0.3662109375,1.708984375,-0.03560500964522362,-0.03790382295846939,-0.5097355842590332,-0.8587579727172852
0,1650776496,855519892,-5.700769579426953,1.6563884285678518,-61.50834649501188,-0.04638671875,0.07666015625,1.05224609375,-1.15966796875,-1.953125,2.50244140625,-0.03534821420907974,-0.037832215428352356,-0.510051965713501,-0.8585838675498962
0,1650776496,875808194,-5.658977786329761,1.5022503756294103,-61.5569706117132,0.021484375,0.10400390625,1.08203125,-3.662109375,-2.01416015625,2.5634765625,-0.03570730984210968,-0.03650739789009094,-0.5104965567588806,-0.858362078666687
0,1650776496,936013151,-5.423301255244824,1.4339105977237305,-61.70392213170602,-0.0849609375,0.0634765625,1.01220703125,1.953125,-0.48828125,2.5634765625,-0.034202151000499725,-0.03498970344662666,-0.5116990804672241,-0.8577704429626465
0,1650776496,955885860,-5.488139387262109,1.3230242908175718,-61.75580424864144,0.04638671875,0.12060546875,0.93017578125,-0.1220703125,-2.0751953125,3.41796875,-0.03516799584031105,-0.034465719014406204,-0.5121132731437683,-0.8575053215026855
0,1650776496,997438169,-5.2225005238356195,1.215737920490833,-61.84497236825596,-0.013671875,0.109375,1.0068359375,-1.89208984375,0.732421875,1.40380859375,-0.03363518416881561,-0.03250223770737648,-0.5129008293151855,-0.8571727275848389
0,1650776497,15420848,-5.11572972606951,1.2060934799393632,-61.86913757753946,-0.04736328125,0.05517578125,0.98193359375,-1.3427734375,-3.96728515625,0.9765625,-0.0328729972243309,-0.031959157437086105,-0.5131153464317322,-0.8570943474769592
0,1650776497,55952972,-4.772579741507601,1.2465706750647398,-61.91041241069385,-0.06689453125,0.02197265625,1.04736328125,1.77001953125,-3.173828125,2.8076171875,-0.030113626271486282,-0.030735941603779793,-0.5135028958320618,-0.8570083379745483
0,1650776497,83077825,-4.576216071737965,1.2456659951648306,-61.96146124455052,-0.07177734375,-0.02294921875,0.98779296875,-4.5166015625,5.43212890625,2.5634765625,-0.028635777533054352,-0.02986195497214794,-0.5139368772506714,-0.8568297624588013
0,1650776497,111322386,-4.218148527141924,1.3579781040602295,-62.083851404287984,-0.044921875,0.03076171875,1.06689453125,0.79345703125,1.40380859375,3.662109375,-0.025422705337405205,-0.029122523963451385,-0.5149059891700745,-0.8563745617866516
0,1650776497,152134869,-4.0123510854680315,1.245674959788116,-62.2429674911926,-0.01220703125,0.08056640625,1.00341796875,5.92041015625,3.2958984375,2.8076171875,-0.02435203082859516,-0.02739267796278,-0.5161812901496887,-0.8556947112083435
0,1650776497,191412339,-3.8820280878964266,1.2242904912704524,-62.38849150164889,-0.052734375,0.0322265625,1.06884765625,5.0048828125,0.54931640625,3.11279296875,-0.023441439494490623,-0.026675783097743988,-0.5173048377037048,-0.8550642132759094
0,1650776497,216477718,-4.015268430017273,1.2301345718790446,-62.43858410902176,-0.04052734375,0.1015625,0.87451171875,1.15966796875,-1.708984375,2.197265625,-0.02439728192985058,-0.027331512421369553,-0.5176453590393066,-0.8548105359077454
0,1650776497,255370442,-4.133758124851831,1.1975796491389423,-62.54085936165354,-0.03564453125,0.07568359375,1.0166015625,1.0986328125,2.50244140625,1.708984375,-0.025403734296560287,-0.027646705508232117,-0.5183898210525513,-0.8543198704719543
0,1650776497,295528413,-4.12841392871312,1.1842386888643208,-62.6014089886457,0.03125,0.04541015625,1.06591796875,-1.15966796875,3.84521484375,0.9765625,-0.025409769266843796,-0.02753654308617115,-0.5188466906547546,-0.8540458679199219
0,1650776497,315544837,-4.201490976416732,1.4047993709857842,-62.65446589811836,-0.0546875,0.10107421875,1.025390625,0.3662109375,-1.3427734375,3.11279296875,-0.02494082599878311,-0.02952195517718792,-0.519152820110321,-0.853807270526886
0,1650776497,356558797,-4.233493400886004,1.5530848055791708,-62.74129126284756,-0.0458984375,0.06396484375,0.859375,0.0,-0.30517578125,2.0751953125,-0.02448313497006893,-0.03078971803188324,-0.5197418928146362,-0.853417158126831
0,1650776497,391278204,-3.827890300987613,1.7431416494239456,-62.83195519389031,0.037109375,-0.2861328125,0.953125,-11.5966796875,-2.74658203125,2.25830078125,-0.02057473361492157,-0.030380912125110626,-0.5204629898071289,-0.853095531463623
0,1650776497,436376808,-3.901395516174821,1.839701847989414,-62.8480607799532,0.0537109375,0.1943359375,0.76123046875,18.6767578125,-3.60107421875,0.1220703125,-0.02067822776734829,-0.031436048448085785,-0.520531952381134,-0.8530126810073853
0,1650776497,456046279,-3.701860504196184,1.9784742164511482,-62.756283528075734,-0.1083984375,0.18896484375,1.05810546875,-5.0048828125,0.0,-3.84521484375,-0.018586616963148117,-0.03154711425304413,-0.5198586583137512,-0.8534672260284424
0,1650776497,497262036,-3.6035266976023337,1.9059559635990073,-62.605076800229995,-0.02001953125,0.07958984375,1.00830078125,-3.35693359375,4.2724609375,-4.33349609375,-0.01822413131594658,-0.030537215992808342,-0.5187814831733704,-0.8541668653488159
0,1650776497,535636700,-3.4871133802754595,2.001519915041006,-62.413052861904255,0.02587890625,0.04638671875,0.9912109375,-3.41796875,2.74658203125,-5.67626953125,-0.016974439844489098,-0.030693667009472847,-0.5173510313034058,-0.8550541996955872
0,1650776497,555785127,-3.4234052176789884,2.1823594186008486,-62.3182225154678,-0.0986328125,0.05224609375,1.068359375,-2.5634765625,5.43212890625,-4.69970703125,-0.015707438811659813,-0.03174154832959175,-0.5166049599647522,-0.8554912209510803
0,1650776497,575546217,-3.531990711330205,2.280085765245391,-62.236232924670965,-0.0048828125,0.1015625,0.93115234375,0.48828125,5.55419921875,-3.84521484375,-0.01610025204718113,-0.03294859454035759,-0.5159314274787903,-0.8558446168899536
0,1650776497,610781092,-2.920422830123256,2.4841173895754234,-62.08319570612766,0.08056640625,-0.46826171875,1.298828125,-20.44677734375,2.8076171875,-4.08935546875,-0.010654318146407604,-0.03170343488454819,-0.514898419380188,-0.8565984964370728
0,1650776497,638325380,-3.1286904523991663,2.535555330771378,-62.037713476444544,0.1796875,-0.14111328125,0.5400390625,16.357421875,-5.37109375,0.732421875,-0.011992699466645718,-0.03301866725087166,-0.5144843459129333,-0.8567798733711243
0,1650776497,677036755,-2.9715474363910364,2.5258637192259528,-61.86934248321456,-0.01220703125,-0.05126953125,1.00927734375,-2.0751953125,3.7841796875,-5.37109375,-0.010908721946179867,-0.03222469612956047,-0.5132725238800049,-0.8575511574745178
0,1650776497,691838972,-3.0596859049881737,2.5097598407103554,-61.76569436255962,0.0361328125,0.0849609375,0.90771484375,3.23486328125,0.9765625,-3.5400390625,-0.011669964529573917,-0.03248850256204605,-0.5124765634536743,-0.8580070734024048
0,1650776497,735825069,-3.1769350667147283,2.30990957281284,-61.5931159728009,0.01513671875,0.06494140625,1.05078125,0.54931640625,2.62451171875,-5.31005859375,-0.013490824960172176,-0.03149724379181862,-0.511210560798645,-0.8587721586227417
0,1650776497,759572752,-3.357754933480707,2.1697959259528448,-61.449798113446526,0.00341796875,0.13671875,0.962890625,1.89208984375,-2.0751953125,-6.591796875,-0.01551122311502695,-0.031235193833708763,-0.5101287961006165,-0.8593907356262207
0,1650776497,795992840,-2.9532333513487052,2.4663211182495437,-61.2080503979631,-0.185546875,0.03466796875,1.61572265625,6.7138671875,11.3525390625,-6.9580078125,-0.011221607215702534,-0.03163314238190651,-0.5083376169204712,-0.8605035543441772
0,1650776497,815858892,-3.486024605433077,2.344793483338211,-61.142262015877535,-0.03173828125,0.09912109375,0.74609375,11.04736328125,-1.89208984375,-3.96728515625,-0.01578148826956749,-0.03307541087269783,-0.5077300667762756,-0.8607363700866699
0,1650776497,855960062,-3.263600775772081,2.433011139441038,-61.01587619547562,-0.07373046875,0.06005859375,1.16845703125,-0.67138671875,-4.57763671875,-3.173828125,-0.013755175285041332,-0.032736875116825104,-0.5068166255950928,-0.861322283744812
0,1650776497,876878044,-3.531640877578653,2.3106115881934706,-60.9521505305194,-0.00146484375,0.11962890625,0.92822265625,5.79833984375,1.03759765625,-3.60107421875,-0.016330661252141,-0.03299391269683838,-0.5062991380691528,-0.8615717887878418
0,1650776497,900902310,-3.683967116118043,2.3152661486694224,-60.903389810034675,0.0146484375,0.10400390625,0.9853515625,-0.79345703125,-1.3427734375,-2.685546875,-0.017469661310315132,-0.033694446086883545,-0.5058866739273071,-0.8617645502090454
0,1650776497,932412614,-4.214226717897867,2.3628881485534556,-60.784961160015825,-0.0908203125,0.166015625,0.97509765625,-0.06103515625,1.15966796875,-4.150390625,-0.0212840735912323,-0.036370810121297836,-0.5048170685768127,-0.8621971607208252
0,1650776497,972906497,-4.543875979791601,2.3444948760054345,-60.65820650939873,-0.017578125,0.14599609375,1.07568359375,3.11279296875,-4.150390625,-3.47900390625,-0.02388720028102398,-0.03765822947025299,-0.5037635564804077,-0.8626897931098938
0,1650776497,997483673,-4.816760820153828,2.3483082559964172,-60.55835597392231,-0.05126953125,0.140625,0.94970703125,1.28173828125,2.9296875,-4.57763671875,-0.025958577170968056,-0.03886384144425392,-0.50291907787323,-0.8630691170692444
0,1650776498,17658532,-4.908145763040837,2.497403174728156,-60.50221864913398,-0.05224609375,0.095703125,0.95751953125,-0.67138671875,-0.79345703125,-2.44140625,-0.026010340079665184,-0.040373895317316055,-0.5024030804634094,-0.8632985949516296
0,1650776498,57004099,-4.98295597124634,2.6927495731982827,-60.409505661340226,-0.125,0.11474609375,1.00048828125,-3.7841796875,-2.74658203125,-1.64794921875,-0.025748802348971367,-0.04215101897716522,-0.5015945434570312,-0.8636916279792786
0,1650776498,96994674,-4.791280799455095,2.785201733143106,-60.33838290151289,-0.115234375,0.10107421875,1.048828125,-3.173828125,-8.1787109375,-1.40380859375,-0.02392403408885002,-0.0419931560754776,-0.501089334487915,-0.8640450239181519
0,1650776498,115923615,-4.423942126834408,2.6293340415190647,-60.30074855918611,-0.0205078125,-0.72900390625,0.2978515625,-30.21240234375,1.03759765625,-1.0986328125,-0.021850930526852608,-0.03920532763004303,-0.5009990334510803,-0.8642833232879639
0,1650776498,155635911,-4.2600227093959795,2.5246178500326604,-60.226408780259696,0.17626953125,-0.08837890625,0.30126953125,15.56396484375,-12.14599609375,2.01416015625,-0.021098244935274124,-0.03768588975071907,-0.5005335211753845,-0.864639163017273
0,1650776498,178935615,-3.9207240977523106,2.481945602862771,-60.20026281611688,0.1337890625,0.15283203125,1.0859375,-8.1787109375,4.7607421875,0.0,-0.01873311586678028,-0.03587768226861954,-0.500460684299469,-0.8648127317428589
0,1650776498,219420730,-3.8095333138195575,2.5104234362769042,-60.142315491198495,-0.03857421875,0.21923828125,0.90283203125,0.8544921875,-0.3662109375,-2.5634765625,-0.01778727024793625,-0.03559781238436699,-0.500048041343689,-0.865082859992981
0,1650776498,255712974,-3.7067090847332467,2.822894558964644,-60.07803658091951,-0.0869140625,0.04296875,1.06591796875,1.77001953125,-2.3193359375,-0.6103515625,-0.015665018931031227,-0.03749721869826317,-0.4994863271713257,-0.8653681874275208
0,1650776498,297828305,-3.880010193883511,2.8677198098269687,-60.07949141121272,0.01318359375,0.08837890625,1.02490234375,-3.72314453125,-1.03759765625,0.18310546875,-0.01677730493247509,-0.03859095275402069,-0.4994237422943115,-0.8653352856636047
0,1650776498,316330003,-3.8704697002734725,2.7304778306261404,-60.07686178838227,-0.0302734375,0.07568359375,1.03271484375,4.94384765625,-2.50244140625,0.8544921875,-0.01730600744485855,-0.03751358017325401,-0.4994567334651947,-0.8653532266616821
0,1650776498,356996979,-4.040464144091804,2.444496102530414,-60.093937261307296,0.0126953125,0.06787109375,1.03173828125,2.44140625,-3.72314453125,1.40380859375,-0.01983424834907055,-0.03609984740614891,-0.4996337890625,-0.8652569055557251
0,1650776498,402891537,-4.375473396936705,2.2025885179317224,-60.12478239559908,0.0126953125,0.05810546875,1.13818359375,-1.15966796875,1.15966796875,0.06103515625,-0.023411571979522705,-0.03574184700846672,-0.4998500943183899,-0.8650575280189514
0,1650776498,436397506,-4.4869501950409525,1.930075922879261,-60.09289907255346,-0.02978515625,0.07373046875,1.0,1.8310546875,-3.5400390625,-1.40380859375,-0.025454258546233177,-0.034165553748607635,-0.4996764659881592,-0.8651637434959412
0,1650776498,455887293,-4.463464589579864,1.9131037565654256,-60.041549710373296,0.04541015625,0.10302734375,1.02685546875,-1.77001953125,4.7607421875,-3.23486328125,-0.025366323068737984,-0.033923737704753876,-0.499301940202713,-0.8653920292854309
0,1650776498,500256854,-4.537447064235327,2.1870327620970182,-59.969901025979865,-0.08203125,0.0634765625,0.92333984375,-1.5869140625,1.5869140625,-0.732421875,-0.02475139871239662,-0.03629760444164276,-0.498635470867157,-0.8656977415084839
0,1650776498,515695438,-4.526931988008092,2.274868141049736,-59.97369861115839,-0.10400390625,0.0830078125,0.96630859375,-0.91552734375,-2.74658203125,0.91552734375,-0.024287527427077293,-0.03691563382744789,-0.49863380193710327,-0.8656856417655945
0,1650776498,555928899,-4.5170619377706,1.979949110425048,-60.02089521832318,-0.00146484375,0.0615234375,1.0166015625,-0.8544921875,-5.92041015625,1.8310546875,-0.025485413148999214,-0.03465709462761879,-0.49910515546798706,-0.8654729723930359
0,1650776498,596460767,-4.341242623250717,1.9143754524115173,-60.06777763678615,-0.02001953125,0.048828125,0.9892578125,-1.46484375,-3.60107421875,2.13623046875,-0.02443009614944458,-0.03340635821223259,-0.4995354413986206,-0.8653043508529663
0,1650776498,616881392,-4.259183876788538,1.8820641753257141,-60.10229058266222,-0.07177734375,0.04150390625,0.91650390625,1.15966796875,-1.708984375,0.91552734375,-0.023941731080412865,-0.032812025398015976,-0.4998312294483185,-0.8651699423789978
0,1650776498,658665099,-3.493749762827773,1.9387011711405178,-60.131230094175564,-0.04296875,0.0224609375,1.60400390625,6.40869140625,11.3525390625,1.03759765625,-0.01790705695748329,-0.02990456111729145,-0.5002406239509583,-0.8651846647262573
0,1650776498,676011121,-3.772892764017024,1.7239791268206517,-60.177689040909996,0.10986328125,-0.34375,0.6689453125,0.0,-10.3759765625,0.732421875,-0.02094159834086895,-0.029511436820030212,-0.5005853772163391,-0.8649305701255798
0,1650776498,717946415,-3.2343302135274032,1.8224735495817033,-60.15698673753568,-0.08251953125,-0.33447265625,1.5166015625,0.0,2.38037109375,-1.8310546875,-0.016450362280011177,-0.027898604050278664,-0.5005345940589905,-0.8651105165481567
0,1650776498,750806768,-3.5940148054094445,1.9172949313948746,-60.1970253064503,-0.04833984375,0.14990234375,1.02783203125,-12.75634765625,-1.953125,1.8310546875,-0.018740350380539894,-0.03019149973988533,-0.5007175803184509,-0.8648810386657715
0,1650776498,771365125,-3.0862098774128603,1.8977422342352437,-60.22565745945099,-0.03076171875,-0.17138671875,1.56591796875,-13.18359375,5.31005859375,1.708984375,-0.014986153692007065,-0.02782854624092579,-0.5010679364204407,-0.8648305535316467
0,1650776498,816192522,-3.5456617618408086,1.8572851027905541,-60.29505901160749,-0.03125,0.1357421875,0.89453125,-2.74658203125,-5.859375,1.52587890625,-0.018612826243042946,-0.02954348549246788,-0.5014883279800415,-0.8644595146179199
0,1650776498,836855265,-3.4612527899739103,1.6781991435784065,-60.31235988077513,0.0458984375,0.0947265625,1.00390625,-3.7841796875,0.06103515625,0.8544921875,-0.018756922334432602,-0.02782662771642208,-0.5016933679580688,-0.8643943667411804
0,1650776498,878367029,-3.7168339864041444,1.6098800696836482,-60.32649837235706,-0.06396484375,0.13525390625,1.01318359375,-4.57763671875,-0.1220703125,-0.30517578125,-0.02098083682358265,-0.028433063998818398,-0.5017577409744263,-0.8642861247062683
0,1650776498,912727835,-3.862045942592731,1.6552389290748797,-60.33221524069236,0.00830078125,0.1923828125,0.99169921875,7.99560546875,-3.41796875,2.01416015625,-0.021875668317079544,-0.02941187657415867,-0.5017500519752502,-0.8642356991767883
0,1650776498,933127692,-4.135424264122491,1.644116926506866,-60.363026224038286,0.04345703125,0.26513671875,0.8623046875,2.86865234375,9.521484375,0.3662109375,-0.023977957665920258,-0.030531425029039383,-0.5019145011901855,-0.8640455603599548
0,1650776498,976798196,-4.458717181219882,1.7842026122799466,-60.46769204287956,-0.05517578125,0.17138671875,1.06787109375,1.40380859375,-2.0751953125,2.74658203125,-0.025770731270313263,-0.03302636742591858,-0.5025650262832642,-0.8635239005088806
0,1650776498,995644575,-4.618458657320378,1.7510221936222594,-60.521404650512544,-0.0263671875,0.130859375,1.0400390625,-0.6103515625,2.8076171875,1.3427734375,-0.027104588225483894,-0.03348977491259575,-0.502935528755188,-0.8632495403289795
0,1650776499,35658830,-5.059369993246327,1.5873851618173285,-60.61068888334295,0.04150390625,0.13134765625,0.96875,-0.732421875,-0.67138671875,2.13623046875,-0.03111887350678444,-0.03421728312969208,-0.5035401582717896,-0.862733006477356
0,1650776499,58067408,-5.021748884411074,1.5824489627598193,-60.63441696051957,-0.060546875,0.09716796875,1.1611328125,-4.7607421875,-3.5400390625,1.52587890625,-0.030850322917103767,-0.03402122110128403,-0.5037319660186768,-0.8626383543014526
0,1650776499,96988740,-5.2264137953432135,1.4735429838261411,-60.67777500137082,-0.02392578125,0.1259765625,0.9609375,0.1220703125,-4.150390625,0.244140625,-0.03285777196288109,-0.03411409258842468,-0.504040539264679,-0.8623802661895752
0,1650776499,115490151,-5.1808944265064865,1.3398852531139829,-60.66985881212277,0.0703125,0.0888671875,1.09423828125,-0.1220703125,4.638671875,-0.732421875,-0.033106546849012375,-0.03290635719895363,-0.504047155380249,-0.8624138832092285
0,1650776499,154917288,-5.3283398545536675,1.4947113408895973,-60.69076602117218,-0.0205078125,0.09619140625,0.9365234375,-4.69970703125,4.57763671875,0.42724609375,-0.033527590334415436,-0.03472539782524109,-0.5040991306304932,-0.8622958660125732
0,1650776499,196133396,-5.220092028379543,1.5961239619735368,-60.724179306591886,-0.0283203125,0.103515625,1.02197265625,-0.91552734375,0.244140625,0.54931640625,-0.03225573152303696,-0.03502120450139046,-0.5043423175811768,-0.8621901869773865
0,1650776499,238018928,-5.011819070018345,1.5822613460010555,-60.73902130765832,-0.064453125,0.08154296875,1.0390625,2.38037109375,0.3662109375,0.18310546875,-0.03074537217617035,-0.03400423750281334,-0.5045222043991089,-0.8621808886528015
0,1650776499,256425360,-4.952001127041019,1.6272855261229564,-60.742948666431076,-0.04541015625,0.05322265625,0.896484375,-2.50244140625,-7.75146484375,0.67138671875,-0.03009548969566822,-0.03408042713999748,-0.5045520067214966,-0.8621833324432373
0,1650776499,297359830,-4.458206624579423,1.5590971863177803,-60.73087289197849,-0.08154296875,-0.01416015625,1.20068359375,-6.34765625,-1.8310546875,-0.1220703125,-0.026684116572141647,-0.03139030933380127,-0.5046274662017822,-0.8623536825180054
0,1650776499,343554491,-3.8731403042389476,1.4597957340176095,-60.67734469945311,-0.02294921875,0.02978515625,0.943359375,-5.7373046875,-2.86865234375,-1.8310546875,-0.022732112556695938,-0.028055831789970398,-0.5044092535972595,-0.8627094030380249
0,1650776499,352262895,-3.6170867575389245,1.4204822323720738,-60.63771594188869,0.01904296875,-0.01171875,1.017578125,-2.5634765625,4.638671875,-2.38037109375,-0.020986858755350113,-0.026625558733940125,-0.504183828830719,-0.8629306554794312
0,1650776499,397076947,-3.2884502846330568,1.5135065273815915,-60.56780895573361,-0.01806640625,0.03857421875,0.96728515625,0.3662109375,4.94384765625,-2.62451171875,-0.018117908388376236,-0.025868721306324005,-0.5037062168121338,-0.8632975220680237
0,1650776499,437042912,-3.0536791804999703,1.8103713081460868,-60.43339083286776,-0.0546875,0.0224609375,0.95751953125,-2.25830078125,-2.5634765625,-3.2958984375,-0.015074245631694794,-0.027054600417613983,-0.5026665329933167,-0.8639255166053772
0,1650776499,455627269,-2.9415178693748407,1.758662507260859,-60.37428237579047,0.05322265625,-0.01123046875,1.11279296875,1.52587890625,2.197265625,-2.74658203125,-0.014469286426901817,-0.02616545930504799,-0.5022606253623962,-0.8641992211341858
0,1650776499,490877792,-3.0837531437457715,1.746128042916828,-60.25658455601281,-0.021484375,0.0390625,0.90185546875,5.2490234375,-6.04248046875,-1.8310546875,-0.015624376945197582,-0.02667834423482418,-0.5013432502746582,-0.8646960258483887
0,1650776499,535417373,-3.37381590987058,1.5759909121778664,-60.135089151056626,0.1064453125,0.10205078125,1.01416015625,4.150390625,0.06103515625,-2.8076171875,-0.01858675107359886,-0.026644470170140266,-0.5004057288169861,-0.8651813268661499
0,1650776499,557218928,-3.4773596566972698,1.5648255805973055,-60.06588567438605,-0.1025390625,0.0771484375,1.0703125,0.8544921875,-0.54931640625,-4.2724609375,-0.019433647394180298,-0.027000633999705315,-0.49986210465431213,-0.8654658198356628
0,1650776499,596025793,-3.779608120631616,1.47381597794953,-59.8964150206997,-0.07666015625,0.087890625,1.02197265625,2.13623046875,0.91552734375,-2.9296875,-0.022154735401272774,-0.02759927697479725,-0.4985366463661194,-0.8661458492279053
0,1650776499,616264430,-3.949928279095993,1.3939547381310964,-59.85966860296503,-0.00146484375,0.10693359375,0.83544921875,0.79345703125,-0.54931640625,-2.197265625,-0.02379891462624073,-0.02772928960621357,-0.49824249744415283,-0.8662674427032471
0,1650776499,658072713,-3.960200883607692,1.6377337945623718,-59.782432823830526,-0.07177734375,0.08154296875,1.03564453125,-0.54931640625,0.8544921875,-1.3427734375,-0.022834982722997665,-0.029600484296679497,-0.4975782632827759,-0.8666131496429443
0,1650776499,673358589,-3.5329524873427074,1.5970303494207385,-59.733310103319795,-0.14892578125,-0.357421875,0.9853515625,-18.6767578125,-4.94384765625,-2.86865234375,-0.019792525097727776,-0.02742891013622284,-0.4973255693912506,-0.8669043779373169
0,1650776499,717097959,-3.131756567006267,1.6647754739818044,-59.68500017532029,0.16552734375,-0.31298828125,1.328125,-20.81298828125,6.65283203125,-1.89208984375,-0.01647387631237507,-0.026192931458353996,-0.49703487753868103,-0.867178738117218
0,1650776499,735996275,-3.323230888547231,1.640824241718391,-59.65030281433663,-0.09765625,0.13720703125,0.734375,18.12744140625,-8.72802734375,0.18310546875,-0.018035003915429115,-0.026836784556508064,-0.49673452973365784,-0.8673000931739807
0,1650776499,776277320,-3.045118605592417,1.5138113245733034,-59.52369842788127,-0.1201171875,0.02880859375,1.14990234375,-6.53076171875,0.3662109375,-3.2958984375,-0.016508644446730614,-0.024651961401104927,-0.4958727955818176,-0.8678882122039795
0,1650776499,796362610,-3.1499895435522047,1.4363037252541737,-59.4489146866588,-0.05078125,0.12548828125,0.91455078125,2.0751953125,-2.5634765625,-3.84521484375,-0.01765470765531063,-0.024507468566298485,-0.4953039884567261,-0.8681944608688354
0,1650776499,836349504,-3.2355094883762883,1.36785349038301,-59.358373699021115,0.01904296875,0.0693359375,0.8857421875,-2.8076171875,1.40380859375,-1.89208984375,-0.01861809752881527,-0.024344012141227722,-0.4946177303791046,-0.86857008934021
0,1650776499,850805984,-3.3087135349097805,1.5917100589441218,-59.33069094231505,-0.09619140625,0.08154296875,0.93115234375,0.18310546875,-1.77001953125,-0.8544921875,-0.018211904913187027,-0.026351608335971832,-0.4943307042121887,-0.8686835765838623
0,1650776499,896041934,-3.232291402060154,1.5458476865450135,-59.30659403492325,0.08837890625,0.04150390625,1.09619140625,-3.0517578125,1.03759765625,0.0,-0.017836090177297592,-0.02567065879702568,-0.49417802691459656,-0.8687986135482788
0,1650776499,932741676,-3.360601841704133,1.6203956795194117,-59.280072410376086,-0.02734375,0.07177734375,1.080078125,1.03759765625,-1.77001953125,-0.54931640625,-0.0184931643307209,-0.026784630492329597,-0.49392688274383545,-0.8688940405845642
0,1650776499,956189831,-3.485820980418446,1.555379855862001,-59.256924899278914,-0.0419921875,0.0654296875,0.95654296875,-0.732421875,-0.3662109375,-2.13623046875,-0.01972869597375393,-0.026827627792954445,-0.49374064803123474,-0.8689714074134827
0,1650776499,996373882,-3.844103462529931,1.4118820637116758,-59.16553013799497,0.0029296875,0.1455078125,1.10595703125,6.40869140625,-0.91552734375,-2.25830078125,-0.023086434230208397,-0.0272652767598629,-0.4930057227611542,-0.8692921996116638
0,1650776500,15647920,-4.0326777284379896,1.2968570890553124,-59.12520470113522,0.08154296875,0.1240234375,1.00048828125,2.38037109375,2.8076171875,-2.3193359375,-0.02502206712961197,-0.027195606380701065,-0.4926908314228058,-0.8694194555282593
0,1650776500,56624405,-4.5066313851343445,1.4706754783134992,-59.13597590945633,-0.03369140625,0.14453125,1.04736328125,0.30517578125,5.37109375,0.732421875,-0.0278665442019701,-0.030553679913282394,-0.4925948977470398,-0.8692757487297058
0,1650776500,95842512,-4.845261065126175,1.6493706226390752,-59.2590695786783,-0.041015625,0.08740234375,0.98779296875,-3.0517578125,-3.173828125,3.2958984375,-0.029629837721586227,-0.033395614475011826,-0.49336814880371094,-0.868674099445343
0,1650776500,116181984,-4.882763072537776,1.5268629623035515,-59.32972788564208,0.078125,0.11865234375,1.0888671875,3.84521484375,-1.0986328125,4.150390625,-0.030422557145357132,-0.032647792249917984,-0.493939608335495,-0.8683503270149231
0,1650776500,159843143,-5.111413900287708,1.6352957371937946,-59.485722576096,-0.0146484375,0.07421875,0.9658203125,8.72802734375,-4.0283203125,4.33349609375,-0.031639911234378815,-0.0344974659383297,-0.4950118958950043,-0.8676244020462036
0,1650776500,192517859,-5.28954779516258,1.378047547719254,-59.63870515312595,-0.01171875,0.1044921875,1.08740234375,-2.13623046875,-0.3662109375,3.84521484375,-0.03405770659446716,-0.033366166055202484,-0.4962199926376343,-0.8668867945671082
0,1650776500,215577396,-5.173747914200537,1.2510076299826036,-59.72402787623775,0.064453125,-0.291015625,0.7392578125,-0.79345703125,3.47900390625,2.99072265625,-0.0337090902030468,-0.031929295510053635,-0.4969485402107239,-0.8665370345115662
0,1650776500,256923235,-4.994285120645276,1.215365781902773,-59.82538105333157,0.0,0.19091796875,0.7041015625,13.97705078125,-2.685546875,4.8828125,-0.03247946500778198,-0.030910326167941093,-0.49777764081954956,-0.8661449551582336
0,1650776500,296509127,-4.812146173595838,1.3743356600704695,-59.97151978081316,-0.12158203125,-0.1953125,1.0244140625,-2.44140625,4.7607421875,2.38037109375,-0.030371036380529404,-0.03135885298252106,-0.49887213110923767,-0.8655754923820496
0,1650776500,321067133,-4.945149166643027,1.4087769956819645,-60.027554652763946,-0.09716796875,0.2275390625,0.9208984375,3.96728515625,-7.14111328125,3.90625,-0.031209714710712433,-0.032213110476732254,-0.4992455244064331,-0.8652989268302917
0,1650776500,356450650,-4.7340894911004625,1.2765005640077356,-60.17498428599867,-0.00927734375,0.0712890625,1.0322265625,3.72314453125,6.16455078125,2.197265625,-0.03015427105128765,-0.030334001407027245,-0.500464916229248,-0.8646997213363647
0,1650776500,396873075,-4.918850803904363,1.2766594726276443,-60.31990040961883,-0.04248046875,0.10546875,0.9560546875,-0.30517578125,-2.5634765625,2.62451171875,-0.03150832653045654,-0.031181953847408295,-0.501508355140686,-0.8640164732933044
0,1650776500,420180938,-4.882779721123878,1.3479342041640199,-60.36287595987655,-0.0654296875,0.064453125,1.08984375,-3.2958984375,1.64794921875,2.3193359375,-0.03091205283999443,-0.031572796404361725,-0.501815676689148,-0.8638453483581543
0,1650776500,458009859,-4.66455090827374,1.1172724193120482,-60.43163547425107,0.03173828125,0.0380859375,0.96533203125,-0.18310546875,0.91552734375,0.3662109375,-0.030261384323239326,-0.028897203505039215,-0.5024749040603638,-0.863578736782074
0,1650776500,476027962,-4.689544704880932,1.0673497128947786,-60.4617156273558,0.0263671875,0.0791015625,0.9033203125,1.15966796875,8.4228515625,1.220703125,-0.03066142462193966,-0.028638796880841255,-0.5027127265930176,-0.8634347915649414
0,1650776500,516151019,-4.589094820304847,1.304016514687661,-60.580745334021614,-0.013671875,0.06103515625,1.03564453125,-4.45556640625,4.57763671875,3.173828125,-0.028833674266934395,-0.03001054935157299,-0.5035520792007446,-0.862962007522583
0,1650776500,536498939,-4.653144919246642,1.4088291825960917,-60.69027424755194,0.01513671875,0.10546875,0.89453125,-0.54931640625,-1.77001953125,4.57763671875,-0.02882498688995838,-0.031108433380723,-0.5043222904205322,-0.8624734878540039
0,1650776500,576348805,-4.497522474102486,1.2904948745651514,-60.849472296726596,0.0732421875,0.10791015625,1.08935546875,0.6103515625,1.5869140625,4.21142578125,-0.0281342975795269,-0.02957242913544178,-0.5056029558181763,-0.8618001937866211
0,1650776500,595691676,-4.677300310133215,1.3455145029288371,-60.97059204127844,-0.0390625,0.181640625,0.9677734375,2.50244140625,-2.0751953125,5.18798828125,-0.029210632666945457,-0.030810033902525902,-0.5064468383789062,-0.8612253665924072
0,1650776500,632346841,-4.870056786247438,1.1404589905535374,-61.120446391668516,0.02392578125,0.140625,1.09716796875,-8.9111328125,-0.48828125,2.62451171875,-0.03152751177549362,-0.030162977054715157,-0.5075953602790833,-0.860490083694458
0,1650776500,679527830,-5.182309556325149,1.1708031731583768,-61.234688135726145,-0.0439453125,0.18798828125,0.97705078125,-2.25830078125,-2.74658203125,2.13623046875,-0.03370586410164833,-0.03180735185742378,-0.5083571672439575,-0.8598984479904175
0,1650776500,716283573,-5.164100271997895,1.1181747513344302,-61.314341801826835,-0.00341796875,0.00048828125,0.89697265625,-2.50244140625,9.09423828125,1.0986328125,-0.0337812714278698,-0.031355343759059906,-0.5089799165725708,-0.8595436215400696
0,1650776500,736436479,-4.674163545756887,1.27183597169144,-61.329914633134464,-0.24462890625,-0.4814453125,1.0537109375,-23.193359375,2.86865234375,0.79345703125,-0.029418233782052994,-0.03033513016998768,-0.5091720223426819,-0.859626829624176
0,1650776500,756537577,-4.816847905065745,1.4282045082807138,-61.37692682519166,-0.22021484375,0.2197265625,1.02099609375,19.59228515625,-3.90625,3.5400390625,-0.029779519885778427,-0.032153625041246414,-0.5094289779663086,-0.8593959212303162
0,1650776500,795706755,-4.657886778077923,1.4759340836441743,-61.475008341673046,-0.0341796875,-0.16552734375,0.99853515625,-3.662109375,-1.89208984375,2.8076171875,-0.02834753319621086,-0.03182893991470337,-0.5101912617683411,-0.8590042591094971
0,1650776500,816044402,-4.636470293048525,1.4409201860811618,-61.54294140315799,0.0458984375,0.1416015625,1.22802734375,6.34765625,2.99072265625,4.2724609375,-0.02832449972629547,-0.031488075852394104,-0.5107189416885376,-0.8587039113044739
0,1650776500,856402184,-4.323792343694981,1.4256535393474197,-61.66817292159018,0.0458984375,-0.47802734375,0.958984375,-22.8271484375,-3.2958984375,3.35693359375,-0.026016689836978912,-0.030008498579263687,-0.511746346950531,-0.8582181334495544
0,1650776500,876536979,-4.171846247871584,1.5519680696498737,-61.714522585297885,-0.13720703125,0.0556640625,1.59912109375,9.33837890625,5.31005859375,2.13623046875,-0.024301424622535706,-0.03028525784611702,-0.5120909810066223,-0.8580531477928162
0,1650776500,916049973,-4.276104816683598,1.3354305823929595,-61.81837561162793,-0.05908203125,0.0478515625,1.0244140625,-7.14111328125,2.197265625,1.52587890625,-0.026024898514151573,-0.02915431372821331,-0.5129133462905884,-0.8575503826141357
0,1650776500,955705787,-4.360787636447531,1.5051905586236893,-61.87758652154277,-0.08349609375,0.07861328125,1.1025390625,0.244140625,0.48828125,1.46484375,-0.025881726294755936,-0.030816394835710526,-0.5132769346237183,-0.8572790026664734
0,1650776500,975702050,-4.321954595921424,1.5498962811755383,-61.91715380740465,-0.06298828125,0.029296875,0.9990234375,-4.94384765625,4.150390625,0.732421875,-0.025379927828907967,-0.03098546527326107,-0.5135679841041565,-0.8571136593818665
0,1650776501,17472507,-4.478450451505695,1.5491798583646275,-61.97353018881394,-0.0224609375,0.0654296875,1.00732421875,-2.25830078125,-0.79345703125,1.220703125,-0.026538077741861343,-0.03169451281428337,-0.513947069644928,-0.8568254113197327
0,1650776501,55893442,-4.485086834058008,1.3742208275150487,-62.035992268773704,0.00830078125,0.18896484375,1.015625,4.5166015625,-3.23486328125,1.3427734375,-0.027357162907719612,-0.03043178655207157,-0.5144734382629395,-0.8565294742584229
0,1650776501,75402525,-4.737858047975017,1.2990226859090297,-62.0484505338198,-0.0302734375,0.12890625,0.90087890625,1.3427734375,-2.99072265625,0.54931640625,-0.029581213369965553,-0.031008072197437286,-0.5145253539085388,-0.8564035892486572
0,1650776501,115770227,-5.0484903556721425,1.1811013908794636,-62.057568836361774,0.0,0.13037109375,0.99267578125,2.685546875,0.79345703125,-0.42724609375,-0.032430361956357956,-0.03152460604906082,-0.514552116394043,-0.8562655448913574
0,1650776501,156090376,-5.308733796541146,1.287629610208331,-62.0082275497976,-0.07568359375,0.09326171875,0.96826171875,-2.13623046875,-0.42724609375,-2.0751953125,-0.03391026705503464,-0.03347397595643997,-0.5140684247016907,-0.8564246892929077
0,1650776501,176198962,-5.382558323072051,1.3785395347829066,-61.97055905652498,-0.06103515625,0.095703125,0.95263671875,-2.13623046875,5.06591796875,-2.99072265625,-0.03406479209661484,-0.034472934901714325,-0.5137285590171814,-0.8565828204154968
0,1650776501,217668163,-5.355110781005532,1.7226366744836268,-61.837322556385544,-0.072265625,0.1083984375,1.06591796875,-0.9765625,0.79345703125,-2.3193359375,-0.03235682472586632,-0.03688256815075874,-0.5125992894172668,-0.8572250604629517
0,1650776501,235763964,-5.329813467867098,1.699870373319505,-61.807768327846894,0.005859375,0.10205078125,1.02392578125,-1.8310546875,-0.79345703125,-1.15966796875,-0.03227910026907921,-0.03659091517329216,-0.5123957395553589,-0.8573621511459351
0,1650776501,256176109,-5.216219311120146,1.7973408013135834,-61.77350809897011,-0.11279296875,0.10107421875,1.05419921875,-3.90625,-8.4228515625,-1.03759765625,-0.031003322452306747,-0.03680238500237465,-0.5121355652809143,-0.8575555682182312
0,1650776501,296199259,-4.779970006189554,1.804741951609527,-61.68084292250055,-0.2353515625,0.02734375,1.283203125,18.9208984375,-5.92041015625,-3.35693359375,-0.02773345820605755,-0.034885358065366745,-0.5115754008293152,-0.8580819368362427
0,1650776501,316124800,-4.637860236544623,1.7245069723774467,-61.631296730261276,0.21630859375,-0.27978515625,1.19482421875,-16.6015625,2.99072265625,-3.96728515625,-0.027042824774980545,-0.03363882750272751,-0.5112770199775696,-0.8583315014839172
0,1650776501,355745572,-4.113388793199561,1.7127341808475778,-61.50474015513011,0.021484375,-0.470703125,1.4091796875,-7.32421875,6.53076171875,-2.99072265625,-0.023201175034046173,-0.031184690073132515,-0.5104811787605286,-0.8590100407600403
0,1650776501,395722673,-4.4589750208610495,1.6047444077580333,-61.48449547443019,0.0029296875,0.20263671875,1.06103515625,-7.01904296875,5.859375,-1.64794921875,-0.026279224082827568,-0.03191051259636879,-0.5102715492248535,-0.8590192794799805
0,1650776501,415704376,-4.336893073409888,1.743564907709075,-61.47686615312729,-0.0263671875,0.0166015625,1.1396484375,0.6103515625,1.03759765625,0.67138671875,-0.02474687062203884,-0.032405219972133636,-0.5101996064186096,-0.8590890765190125
0,1650776501,455924650,-4.519956230431393,1.8376732818059203,-61.50955543849497,-0.115234375,0.11962890625,0.88427734375,-4.57763671875,-6.53076171875,0.54931640625,-0.025689763948321342,-0.03393254801630974,-0.5103578567504883,-0.8589083552360535
0,1650776501,476021364,-4.357065610236698,1.6698372844870184,-61.524028609346225,0.03515625,0.06689453125,1.171875,2.01416015625,3.5400390625,0.67138671875,-0.02521384321153164,-0.03195306286215782,-0.5105733871459961,-0.8588702082633972
0,1650776501,517362082,-4.167631167380041,1.6073277133681791,-61.56886197105819,-0.05224609375,-0.3310546875,0.8828125,-13.0615234375,-4.5166015625,2.50244140625,-0.024061035364866257,-0.030650148168206215,-0.5109825134277344,-0.8587074279785156
0,1650776501,556098673,-4.247211408947152,1.3420327072777172,-61.61724020094939,0.119140625,0.01708984375,0.90283203125,5.18798828125,1.40380859375,-1.0986328125,-0.025830071419477463,-0.02902907505631447,-0.511412501335144,-0.8584563732147217
0,1650776501,576226715,-4.105636528491597,1.3630829234128734,-61.599030916622134,-0.03662109375,0.06005859375,1.10107421875,-3.7841796875,1.220703125,-1.28173828125,-0.024679899215698242,-0.02855091169476509,-0.5113047957420349,-0.8585705161094666
0,1650776501,595627507,-4.205653976715855,1.388340322633346,-61.58572570811895,-0.00390625,0.095703125,0.9150390625,1.708984375,7.080078125,-1.3427734375,-0.025319797918200493,-0.02918337658047676,-0.5111716985702515,-0.8586097955703735
0,1650776501,636138829,-4.285341366875571,1.8683451000475089,-61.587214689358014,-0.103515625,0.08203125,1.0615234375,-0.3662109375,3.47900390625,0.54931640625,-0.02377183362841606,-0.033133432269096375,-0.510997474193573,-0.858614444732666
0,1650776501,676120506,-4.62765123816957,1.9018700163714586,-61.633728277605805,-0.072265625,0.1982421875,1.1748046875,-0.67138671875,-3.35693359375,1.89208984375,-0.026172617450356483,-0.03492134436964989,-0.5112320184707642,-0.8583340644836426
0,1650776501,716765143,-5.020869497555434,1.7502992607872958,-61.672298355848866,-0.0068359375,0.15087890625,0.89453125,2.685546875,-2.685546875,0.06103515625,-0.029783518984913826,-0.035551201552152634,-0.5114585757255554,-0.8580554723739624
0,1650776501,735777894,-5.2238012479856835,1.713869913240504,-61.66786556307753,0.01806640625,0.208984375,0.95458984375,-1.52587890625,-3.2958984375,-0.732421875,-0.031467366963624954,-0.036183133721351624,-0.5113765001296997,-0.8580179214477539
0,1650776501,756245816,-5.339983619541247,1.6021399712501427,-61.64537375014067,0.078125,0.162109375,1.125,0.18310546875,1.220703125,-1.15966796875,-0.032844044268131256,-0.03585927188396454,-0.5112174153327942,-0.8580747246742249
0,1650776501,795863069,-5.557035078533204,1.44628572656103,-61.58778159505913,0.03662109375,0.0986328125,1.0029296875,-5.9814453125,-0.9765625,-2.01416015625,-0.03518396243453026,-0.03564378246665001,-0.5107831358909607,-0.8582494854927063
0,1650776501,836522458,-5.033544621107685,1.4589435611969446,-61.46690773731741,-0.04931640625,-0.51318359375,0.81640625,-20.44677734375,-5.859375,-2.685546875,-0.031241528689861298,-0.03337182104587555,-0.5100300312042236,-0.8589410185813904
0,1650776501,855958515,-5.021925615555848,1.6673573922097749,-61.441677018523386,-0.27880859375,0.1787109375,0.982421875,14.09912109375,0.79345703125,0.0,-0.03023269586265087,-0.0348745621740818,-0.5097631216049194,-0.8590759634971619
0,1650776501,890864517,-4.839521998676072,1.5670561709698434,-61.40792222364518,-0.03515625,-0.0732421875,1.109375,-4.0283203125,-0.1220703125,-1.220703125,-0.029322169721126556,-0.03330300748348236,-0.509602963924408,-0.8592648506164551
0,1650776501,916120588,-4.8475871714253875,1.6323298342684223,-61.38874305245579,-0.1318359375,0.17529296875,0.99853515625,7.38525390625,-1.77001953125,-1.0986328125,-0.029097454622387886,-0.03382311761379242,-0.5094320178031921,-0.8593534827232361
0,1650776501,956304574,-4.719723895728634,1.5335929397918353,-61.336287199630085,-0.056640625,0.0634765625,1.01806640625,-6.4697265625,-0.06103515625,-1.52587890625,-0.0285932794213295,-0.03250160440802574,-0.5091125965118408,-0.8596106171607971
0,1650776501,975665141,-4.6257311012391495,1.4772851804393676,-61.324033840259084,0.0439453125,0.05126953125,1.041015625,-0.18310546875,1.220703125,-0.48828125,-0.02814219892024994,-0.0316588468849659,-0.5090674757957458,-0.8596836924552917
0,1650776502,15819398,-4.597415271374392,1.3985498546169282,-61.27993130878831,0.08984375,0.0419921875,1.16064453125,-1.52587890625,0.0,-0.48828125,-0.028292063623666763,-0.030931832268834114,-0.5087724924087524,-0.8598799109458923
